Timestamp,AX,AY,AZ
2025-06-18 16:34:06.984,0.08,0.39,9.79
2025-06-18 16:34:07.120,0.09,0.38,9.79
2025-06-18 16:34:07.300,0.08,0.38,9.79
2025-06-18 16:34:07.490,0.08,0.38,9.8
2025-06-18 16:34:07.670,0.08,0.38,9.8
2025-06-18 16:34:07.860,0.08,0.39,9.79
2025-06-18 16:34:07.104,0.08,0.39,9.79
2025-06-18 16:34:07.132,0.08,0.38,9.8
2025-06-18 16:34:07.151,0.08,0.38,9.8
2025-06-18 16:34:07.170,0.08,0.39,9.79
2025-06-18 16:34:07.188,0.08,0.39,9.79
2025-06-18 16:34:07.207,0.08,0.38,9.79
2025-06-18 16:34:07.225,0.08,0.38,9.79
2025-06-18 16:34:07.244,0.08,0.39,9.79
2025-06-18 16:34:07.272,0.08,0.39,9.79
2025-06-18 16:34:07.290,0.08,0.39,9.79
2025-06-18 16:34:07.309,0.08,0.39,9.79
2025-06-18 16:34:07.327,0.09,0.38,9.79
2025-06-18 16:34:07.346,0.09,0.38,9.79
2025-06-18 16:34:07.365,0.09,0.38,9.8
2025-06-18 16:34:07.393,0.09,0.38,9.8
2025-06-18 16:34:07.431,0.08,0.39,9.8
2025-06-18 16:34:07.449,0.08,0.38,9.79
2025-06-18 16:34:07.487,0.08,0.38,9.79
2025-06-18 16:34:07.506,0.08,0.38,9.79
2025-06-18 16:34:07.534,0.08,0.39,9.79
2025-06-18 16:34:07.552,0.08,0.39,9.79
2025-06-18 16:34:07.571,0.09,0.39,9.79
2025-06-18 16:34:07.589,0.08,0.39,9.8
2025-06-18 16:34:07.608,0.09,0.39,9.79
2025-06-18 16:34:07.627,0.09,0.38,9.79
2025-06-18 16:34:07.673,0.08,0.39,9.8
2025-06-18 16:34:07.692,0.08,0.39,9.8
2025-06-18 16:34:07.710,0.08,0.38,9.8
2025-06-18 16:34:07.729,0.08,0.38,9.8
2025-06-18 16:34:07.775,0.08,0.38,9.8
2025-06-18 16:34:07.794,0.08,0.39,9.79
2025-06-18 16:34:07.832,0.08,0.39,9.79
2025-06-18 16:34:07.850,0.09,0.38,9.8
2025-06-18 16:34:07.869,0.09,0.38,9.79
2025-06-18 16:34:07.897,0.08,0.39,9.8
2025-06-18 16:34:07.915,0.08,0.39,9.79
2025-06-18 16:34:07.934,0.09,0.38,9.79
2025-06-18 16:34:07.952,0.08,0.39,9.79
2025-06-18 16:34:07.971,0.08,0.38,9.8
2025-06-18 16:34:08.180,0.09,0.38,9.79
2025-06-18 16:34:08.360,0.09,0.38,9.79
2025-06-18 16:34:08.550,0.08,0.39,9.79
2025-06-18 16:34:08.730,0.08,0.39,9.79
2025-06-18 16:34:08.111,0.08,0.38,9.79
2025-06-18 16:34:08.139,0.08,0.38,9.79
2025-06-18 16:34:08.176,0.08,0.38,9.8
2025-06-18 16:34:08.195,0.08,0.38,9.8
2025-06-18 16:34:08.213,0.09,0.39,9.8
2025-06-18 16:34:08.232,0.08,0.38,9.79
2025-06-18 16:34:08.260,0.08,0.39,9.8
2025-06-18 16:34:08.278,0.08,0.39,9.79
2025-06-18 16:34:08.297,0.09,0.38,9.79
2025-06-18 16:34:08.316,0.08,0.39,9.8
2025-06-18 16:34:08.353,0.08,0.39,9.8
2025-06-18 16:34:08.381,0.08,0.39,9.8
2025-06-18 16:34:08.399,0.08,0.39,9.79
2025-06-18 16:34:08.418,0.08,0.39,9.79
2025-06-18 16:34:08.455,0.08,0.38,9.8
2025-06-18 16:34:08.474,0.08,0.39,9.79
2025-06-18 16:34:08.521,0.08,0.38,9.79
2025-06-18 16:34:08.539,0.08,0.38,9.79
2025-06-18 16:34:08.558,0.08,0.39,9.79
2025-06-18 16:34:08.576,0.09,0.38,9.79
2025-06-18 16:34:08.595,0.08,0.38,9.79
2025-06-18 16:34:08.623,0.08,0.39,9.8
2025-06-18 16:34:08.642,0.09,0.38,9.79
2025-06-18 16:34:08.660,0.08,0.38,9.8
2025-06-18 16:34:08.697,0.08,0.39,9.8
2025-06-18 16:34:08.716,0.08,0.39,9.8
2025-06-18 16:34:08.744,0.08,0.39,9.79
2025-06-18 16:34:08.762,0.08,0.39,9.79
2025-06-18 16:34:08.781,0.08,0.39,9.79
2025-06-18 16:34:08.799,0.08,0.39,9.79
2025-06-18 16:34:08.837,0.08,0.38,9.79
2025-06-18 16:34:08.865,0.08,0.38,9.79
2025-06-18 16:34:08.884,0.09,0.39,9.79
2025-06-18 16:34:08.902,0.09,0.38,9.79
2025-06-18 16:34:08.939,0.08,0.39,9.8
2025-06-18 16:34:08.958,0.08,0.38,9.79
2025-06-18 16:34:08.986,0.09,0.38,9.79
2025-06-18 16:34:09.040,0.09,0.38,9.79
2025-06-18 16:34:09.230,0.08,0.38,9.8
2025-06-18 16:34:09.410,0.08,0.38,9.8
2025-06-18 16:34:09.600,0.08,0.39,9.8
2025-06-18 16:34:09.790,0.08,0.39,9.8
2025-06-18 16:34:09.107,0.08,0.38,9.8
2025-06-18 16:34:09.125,0.08,0.38,9.8
2025-06-18 16:34:09.144,0.08,0.39,9.8
2025-06-18 16:34:09.162,0.08,0.39,9.8
2025-06-18 16:34:09.181,0.08,0.38,9.8
2025-06-18 16:34:09.199,0.08,0.38,9.8
2025-06-18 16:34:09.218,0.09,0.39,9.79
2025-06-18 16:34:09.246,0.09,0.39,9.79
2025-06-18 16:34:09.265,0.08,0.38,9.79
2025-06-18 16:34:09.283,0.08,0.38,9.79
2025-06-18 16:34:09.320,0.08,0.39,9.79
2025-06-18 16:34:09.339,0.09,0.38,9.79
2025-06-18 16:34:09.386,0.08,0.39,9.79
2025-06-18 16:34:09.404,0.08,0.39,9.8
2025-06-18 16:34:09.423,0.08,0.39,9.79
2025-06-18 16:34:09.441,0.09,0.39,9.79
2025-06-18 16:34:09.460,0.09,0.39,9.79
2025-06-18 16:34:09.488,0.08,0.39,9.8
2025-06-18 16:34:09.507,0.08,0.38,9.79
2025-06-18 16:34:09.525,0.08,0.38,9.8
2025-06-18 16:34:09.562,0.08,0.39,9.8
2025-06-18 16:34:09.581,0.08,0.39,9.8
2025-06-18 16:34:09.609,0.08,0.38,9.8
2025-06-18 16:34:09.627,0.08,0.38,9.8
2025-06-18 16:34:09.646,0.09,0.38,9.79
2025-06-18 16:34:09.664,0.09,0.38,9.79
2025-06-18 16:34:09.702,0.08,0.39,9.8
2025-06-18 16:34:09.730,0.08,0.39,9.8
2025-06-18 16:34:09.767,0.09,0.38,9.8
2025-06-18 16:34:09.805,0.09,0.39,9.8
2025-06-18 16:34:09.824,0.08,0.38,9.79
2025-06-18 16:34:09.852,0.08,0.38,9.8
2025-06-18 16:34:09.870,0.08,0.38,9.8
2025-06-18 16:34:09.889,0.08,0.39,9.8
2025-06-18 16:34:09.907,0.08,0.39,9.8
2025-06-18 16:34:09.926,0.08,0.38,9.79
2025-06-18 16:34:09.945,0.08,0.38,9.79
2025-06-18 16:34:09.972,0.09,0.39,9.79
2025-06-18 16:34:09.991,0.09,0.39,9.79
2025-06-18 16:34:10.290,0.09,0.38,9.79
2025-06-18 16:34:10.480,0.08,0.39,9.79
2025-06-18 16:34:10.860,0.08,0.39,9.79
2025-06-18 16:34:10.114,0.09,0.38,9.79
2025-06-18 16:34:10.132,0.08,0.38,9.79
2025-06-18 16:34:10.151,0.09,0.38,9.79
2025-06-18 16:34:10.169,0.08,0.39,9.8
2025-06-18 16:34:10.188,0.08,0.39,9.8
2025-06-18 16:34:10.206,0.08,0.39,9.79
2025-06-18 16:34:10.253,0.08,0.39,9.79
2025-06-18 16:34:10.272,0.08,0.39,9.79
2025-06-18 16:34:10.290,0.08,0.38,9.79
2025-06-18 16:34:10.309,0.08,0.38,9.79
2025-06-18 16:34:10.327,0.08,0.38,9.79
2025-06-18 16:34:10.355,0.08,0.38,9.79
2025-06-18 16:34:10.392,0.08,0.38,9.79
2025-06-18 16:34:10.411,0.09,0.38,9.79
2025-06-18 16:34:10.449,0.09,0.38,9.8
2025-06-18 16:34:10.477,0.08,0.38,9.79
2025-06-18 16:34:10.495,0.08,0.38,9.79
2025-06-18 16:34:10.514,0.08,0.38,9.8
2025-06-18 16:34:10.532,0.08,0.38,9.79
2025-06-18 16:34:10.551,0.09,0.38,9.79
2025-06-18 16:34:10.569,0.08,0.38,9.79
2025-06-18 16:34:10.597,0.08,0.39,9.8
2025-06-18 16:34:10.616,0.08,0.39,9.79
2025-06-18 16:34:10.635,0.08,0.39,9.8
2025-06-18 16:34:10.653,0.08,0.38,9.79
2025-06-18 16:34:10.672,0.08,0.39,9.8
2025-06-18 16:34:10.690,0.08,0.39,9.79
2025-06-18 16:34:10.709,0.08,0.39,9.79
2025-06-18 16:34:10.737,0.09,0.39,9.8
2025-06-18 16:34:10.755,0.09,0.39,9.8
2025-06-18 16:34:10.774,0.08,0.38,9.79
2025-06-18 16:34:10.792,0.08,0.38,9.79
2025-06-18 16:34:10.811,0.08,0.38,9.79
2025-06-18 16:34:10.830,0.08,0.38,9.79
2025-06-18 16:34:10.876,0.08,0.39,9.8
2025-06-18 16:34:10.895,0.08,0.38,9.79
2025-06-18 16:34:10.932,0.08,0.39,9.79
2025-06-18 16:34:10.951,0.08,0.39,9.8
2025-06-18 16:34:10.979,0.08,0.38,9.79
2025-06-18 16:34:10.997,0.08,0.38,9.79
2025-06-18 16:34:11.160,0.08,0.38,9.79
2025-06-18 16:34:11.340,0.09,0.38,9.79
2025-06-18 16:34:11.530,0.09,0.39,9.8
2025-06-18 16:34:11.720,0.08,0.38,9.79
2025-06-18 16:34:11.118,0.08,0.38,9.79
2025-06-18 16:34:11.137,0.08,0.38,9.79
2025-06-18 16:34:11.155,0.08,0.38,9.79
2025-06-18 16:34:11.174,0.08,0.39,9.8
2025-06-18 16:34:11.220,0.08,0.39,9.79
2025-06-18 16:34:11.239,0.08,0.39,9.79
2025-06-18 16:34:11.277,0.08,0.38,9.79
2025-06-18 16:34:11.295,0.08,0.39,9.8
2025-06-18 16:34:11.314,0.08,0.38,9.8
2025-06-18 16:34:11.342,0.08,0.39,9.8
2025-06-18 16:34:11.360,0.08,0.38,9.79
2025-06-18 16:34:11.379,0.08,0.39,9.8
2025-06-18 16:34:11.397,0.08,0.38,9.79
2025-06-18 16:34:11.416,0.09,0.39,9.8
2025-06-18 16:34:11.435,0.09,0.39,9.79
2025-06-18 16:34:11.463,0.09,0.38,9.79
2025-06-18 16:34:11.481,0.08,0.38,9.79
2025-06-18 16:34:11.500,0.08,0.39,9.79
2025-06-18 16:34:11.518,0.08,0.39,9.8
2025-06-18 16:34:11.537,0.08,0.39,9.79
2025-06-18 16:34:11.555,0.09,0.38,9.8
2025-06-18 16:34:11.574,0.08,0.38,9.8
2025-06-18 16:34:11.602,0.08,0.39,9.79
2025-06-18 16:34:11.621,0.08,0.39,9.8
2025-06-18 16:34:11.639,0.08,0.38,9.8
2025-06-18 16:34:11.658,0.09,0.39,9.79
2025-06-18 16:34:11.676,0.08,0.39,9.8
2025-06-18 16:34:11.695,0.08,0.39,9.79
2025-06-18 16:34:11.761,0.08,0.38,9.79
2025-06-18 16:34:11.779,0.08,0.39,9.79
2025-06-18 16:34:11.817,0.09,0.38,9.79
2025-06-18 16:34:11.864,0.08,0.39,9.79
2025-06-18 16:34:11.883,0.08,0.39,9.8
2025-06-18 16:34:11.902,0.08,0.39,9.8
2025-06-18 16:34:11.920,0.08,0.38,9.8
2025-06-18 16:34:11.939,0.08,0.38,9.79
2025-06-18 16:34:11.957,0.09,0.39,9.79
2025-06-18 16:34:11.985,0.08,0.38,9.79
2025-06-18 16:34:12.040,0.08,0.38,9.8
2025-06-18 16:34:12.220,0.08,0.39,9.8
2025-06-18 16:34:12.410,0.08,0.38,9.79
2025-06-18 16:34:12.790,0.09,0.39,9.79
2025-06-18 16:34:12.980,0.09,0.38,9.79
2025-06-18 16:34:12.145,0.09,0.38,9.79
2025-06-18 16:34:12.163,0.08,0.39,9.8
2025-06-18 16:34:12.182,0.08,0.39,9.79
2025-06-18 16:34:12.200,0.08,0.39,9.8
2025-06-18 16:34:12.219,0.08,0.39,9.79
2025-06-18 16:34:12.247,0.09,0.38,9.79
2025-06-18 16:34:12.266,0.09,0.38,9.79
2025-06-18 16:34:12.303,0.08,0.39,9.79
2025-06-18 16:34:12.321,0.09,0.38,9.79
2025-06-18 16:34:12.340,0.09,0.39,9.8
2025-06-18 16:34:12.368,0.09,0.38,9.8
2025-06-18 16:34:12.405,0.08,0.39,9.8
2025-06-18 16:34:12.424,0.08,0.39,9.8
2025-06-18 16:34:12.462,0.08,0.39,9.79
2025-06-18 16:34:12.490,0.08,0.39,9.79
2025-06-18 16:34:12.508,0.08,0.38,9.79
2025-06-18 16:34:12.527,0.08,0.38,9.8
2025-06-18 16:34:12.545,0.09,0.38,9.8
2025-06-18 16:34:12.564,0.08,0.39,9.79
2025-06-18 16:34:12.582,0.08,0.39,9.79
2025-06-18 16:34:12.610,0.09,0.38,9.8
2025-06-18 16:34:12.648,0.08,0.38,9.79
2025-06-18 16:34:12.666,0.08,0.38,9.79
2025-06-18 16:34:12.685,0.08,0.39,9.79
2025-06-18 16:34:12.703,0.08,0.39,9.79
2025-06-18 16:34:12.750,0.08,0.38,9.79
2025-06-18 16:34:12.768,0.08,0.38,9.8
2025-06-18 16:34:12.806,0.08,0.39,9.79
2025-06-18 16:34:12.825,0.08,0.39,9.8
2025-06-18 16:34:12.853,0.08,0.39,9.79
2025-06-18 16:34:12.871,0.09,0.39,9.79
2025-06-18 16:34:12.890,0.09,0.39,9.79
2025-06-18 16:34:12.908,0.08,0.39,9.79
2025-06-18 16:34:12.927,0.08,0.39,9.79
2025-06-18 16:34:12.946,0.08,0.38,9.79
2025-06-18 16:34:12.973,0.08,0.38,9.79
2025-06-18 16:34:12.992,0.08,0.39,9.79
2025-06-18 16:34:13.110,0.08,0.39,9.79
2025-06-18 16:34:13.290,0.08,0.38,9.8
2025-06-18 16:34:13.480,0.08,0.38,9.8
2025-06-18 16:34:13.660,0.08,0.38,9.79
2025-06-18 16:34:13.850,0.08,0.38,9.79
2025-06-18 16:34:13.113,0.08,0.39,9.8
2025-06-18 16:34:13.131,0.08,0.39,9.8
2025-06-18 16:34:13.150,0.08,0.38,9.79
2025-06-18 16:34:13.169,0.08,0.38,9.79
2025-06-18 16:34:13.187,0.09,0.39,9.79
2025-06-18 16:34:13.206,0.09,0.39,9.79
2025-06-18 16:34:13.252,0.09,0.38,9.79
2025-06-18 16:34:13.290,0.08,0.39,9.79
2025-06-18 16:34:13.309,0.08,0.39,9.8
2025-06-18 16:34:13.328,0.08,0.38,9.79
2025-06-18 16:34:13.347,0.08,0.39,9.79
2025-06-18 16:34:13.393,0.08,0.38,9.79
2025-06-18 16:34:13.412,0.08,0.39,9.79
2025-06-18 16:34:13.430,0.08,0.38,9.8
2025-06-18 16:34:13.449,0.08,0.38,9.8
2025-06-18 16:34:13.467,0.09,0.39,9.8
2025-06-18 16:34:13.495,0.09,0.39,9.8
2025-06-18 16:34:13.514,0.08,0.38,9.8
2025-06-18 16:34:13.532,0.08,0.38,9.8
2025-06-18 16:34:13.551,0.08,0.38,9.8
2025-06-18 16:34:13.570,0.08,0.38,9.8
2025-06-18 16:34:13.588,0.08,0.39,9.79
2025-06-18 16:34:13.607,0.08,0.39,9.79
2025-06-18 16:34:13.635,0.09,0.39,9.79
2025-06-18 16:34:13.653,0.09,0.39,9.79
2025-06-18 16:34:13.672,0.08,0.39,9.8
2025-06-18 16:34:13.690,0.08,0.39,9.8
2025-06-18 16:34:13.709,0.08,0.39,9.8
2025-06-18 16:34:13.728,0.08,0.39,9.8
2025-06-18 16:34:13.774,0.08,0.39,9.8
2025-06-18 16:34:13.793,0.09,0.38,9.8
2025-06-18 16:34:13.830,0.09,0.38,9.8
2025-06-18 16:34:13.849,0.09,0.38,9.79
2025-06-18 16:34:13.877,0.08,0.39,9.79
2025-06-18 16:34:13.895,0.08,0.39,9.8
2025-06-18 16:34:13.914,0.08,0.39,9.8
2025-06-18 16:34:13.932,0.08,0.39,9.79
2025-06-18 16:34:13.951,0.08,0.39,9.79
2025-06-18 16:34:13.970,0.09,0.39,9.79
2025-06-18 16:34:13.997,0.09,0.39,9.79
2025-06-18 16:34:14.160,0.08,0.38,9.8
2025-06-18 16:34:14.350,0.08,0.38,9.8
2025-06-18 16:34:14.530,0.09,0.39,9.79
2025-06-18 16:34:14.720,0.09,0.39,9.79
2025-06-18 16:34:14.900,0.09,0.38,9.8
2025-06-18 16:34:14.109,0.09,0.38,9.8
2025-06-18 16:34:14.137,0.08,0.39,9.79
2025-06-18 16:34:14.155,0.08,0.39,9.79
2025-06-18 16:34:14.174,0.09,0.38,9.8
2025-06-18 16:34:14.193,0.09,0.38,9.8
2025-06-18 16:34:14.211,0.08,0.38,9.8
2025-06-18 16:34:14.230,0.08,0.38,9.8
2025-06-18 16:34:14.276,0.09,0.39,9.79
2025-06-18 16:34:14.314,0.09,0.39,9.79
2025-06-18 16:34:14.333,0.08,0.39,9.8
2025-06-18 16:34:14.352,0.08,0.38,9.8
2025-06-18 16:34:14.371,0.08,0.38,9.8
2025-06-18 16:34:14.417,0.08,0.38,9.79
2025-06-18 16:34:14.436,0.09,0.39,9.8
2025-06-18 16:34:14.454,0.08,0.39,9.8
2025-06-18 16:34:14.473,0.08,0.39,9.8
2025-06-18 16:34:14.491,0.08,0.38,9.8
2025-06-18 16:34:14.519,0.08,0.38,9.8
2025-06-18 16:34:14.538,0.08,0.39,9.8
2025-06-18 16:34:14.556,0.08,0.39,9.8
2025-06-18 16:34:14.575,0.09,0.38,9.8
2025-06-18 16:34:14.594,0.09,0.38,9.8
2025-06-18 16:34:14.612,0.08,0.39,9.79
2025-06-18 16:34:14.631,0.08,0.39,9.79
2025-06-18 16:34:14.659,0.08,0.38,9.79
2025-06-18 16:34:14.677,0.08,0.38,9.79
2025-06-18 16:34:14.696,0.09,0.39,9.79
2025-06-18 16:34:14.714,0.09,0.39,9.79
2025-06-18 16:34:14.733,0.08,0.38,9.79
2025-06-18 16:34:14.752,0.08,0.38,9.79
2025-06-18 16:34:14.798,0.08,0.39,9.8
2025-06-18 16:34:14.817,0.08,0.39,9.8
2025-06-18 16:34:14.854,0.08,0.39,9.79
2025-06-18 16:34:14.873,0.08,0.39,9.79
2025-06-18 16:34:14.901,0.08,0.39,9.8
2025-06-18 16:34:14.919,0.08,0.39,9.79
2025-06-18 16:34:14.938,0.08,0.39,9.79
2025-06-18 16:34:14.956,0.08,0.38,9.79
2025-06-18 16:34:14.975,0.08,0.38,9.79
2025-06-18 16:34:14.994,0.08,0.39,9.8
2025-06-18 16:34:15.210,0.08,0.39,9.8
2025-06-18 16:34:15.400,0.08,0.39,9.79
2025-06-18 16:34:15.590,0.08,0.39,9.79
2025-06-18 16:34:15.770,0.09,0.39,9.79
2025-06-18 16:34:15.960,0.09,0.39,9.79
2025-06-18 16:34:15.114,0.08,0.38,9.8
2025-06-18 16:34:15.133,0.08,0.38,9.8
2025-06-18 16:34:15.161,0.08,0.39,9.79
2025-06-18 16:34:15.179,0.08,0.39,9.79
2025-06-18 16:34:15.198,0.08,0.39,9.8
2025-06-18 16:34:15.217,0.08,0.39,9.8
2025-06-18 16:34:15.235,0.08,0.39,9.79
2025-06-18 16:34:15.254,0.08,0.39,9.79
2025-06-18 16:34:15.300,0.08,0.39,9.79
2025-06-18 16:34:15.338,0.08,0.39,9.8
2025-06-18 16:34:15.357,0.08,0.39,9.79
2025-06-18 16:34:15.395,0.08,0.38,9.79
2025-06-18 16:34:15.442,0.09,0.38,9.8
2025-06-18 16:34:15.460,0.08,0.38,9.79
2025-06-18 16:34:15.479,0.08,0.38,9.79
2025-06-18 16:34:15.497,0.08,0.38,9.79
2025-06-18 16:34:15.516,0.08,0.39,9.8
2025-06-18 16:34:15.544,0.08,0.39,9.8
2025-06-18 16:34:15.563,0.08,0.38,9.8
2025-06-18 16:34:15.581,0.08,0.38,9.8
2025-06-18 16:34:15.600,0.09,0.38,9.8
2025-06-18 16:34:15.618,0.09,0.38,9.8
2025-06-18 16:34:15.665,0.08,0.39,9.79
2025-06-18 16:34:15.683,0.08,0.39,9.8
2025-06-18 16:34:15.721,0.08,0.39,9.79
2025-06-18 16:34:15.739,0.08,0.39,9.8
2025-06-18 16:34:15.758,0.08,0.38,9.79
2025-06-18 16:34:15.786,0.08,0.38,9.79
2025-06-18 16:34:15.804,0.09,0.38,9.8
2025-06-18 16:34:15.823,0.09,0.38,9.8
2025-06-18 16:34:15.841,0.08,0.38,9.8
2025-06-18 16:34:15.860,0.08,0.38,9.8
2025-06-18 16:34:15.879,0.08,0.39,9.79
2025-06-18 16:34:15.907,0.08,0.39,9.79
2025-06-18 16:34:15.925,0.08,0.38,9.79
2025-06-18 16:34:15.944,0.08,0.38,9.79
2025-06-18 16:34:15.962,0.09,0.38,9.8
2025-06-18 16:34:15.981,0.09,0.38,9.8
2025-06-18 16:34:15.999,0.09,0.38,9.79
2025-06-18 16:34:16.180,0.09,0.38,9.79
2025-06-18 16:34:16.460,0.09,0.39,9.79
2025-06-18 16:34:16.650,0.09,0.39,9.79
2025-06-18 16:34:16.830,0.08,0.39,9.8
2025-06-18 16:34:16.102,0.08,0.39,9.8
2025-06-18 16:34:16.120,0.08,0.38,9.8
2025-06-18 16:34:16.139,0.08,0.38,9.8
2025-06-18 16:34:16.186,0.09,0.38,9.79
2025-06-18 16:34:16.205,0.09,0.39,9.79
2025-06-18 16:34:16.243,0.09,0.38,9.8
2025-06-18 16:34:16.281,0.08,0.38,9.8
2025-06-18 16:34:16.309,0.08,0.38,9.8
2025-06-18 16:34:16.327,0.08,0.39,9.8
2025-06-18 16:34:16.346,0.08,0.39,9.8
2025-06-18 16:34:16.364,0.08,0.38,9.8
2025-06-18 16:34:16.383,0.08,0.38,9.8
2025-06-18 16:34:16.401,0.08,0.39,9.79
2025-06-18 16:34:16.429,0.08,0.39,9.79
2025-06-18 16:34:16.448,0.08,0.38,9.79
2025-06-18 16:34:16.467,0.08,0.38,9.79
2025-06-18 16:34:16.505,0.08,0.39,9.8
2025-06-18 16:34:16.523,0.08,0.39,9.8
2025-06-18 16:34:16.570,0.08,0.39,9.8
2025-06-18 16:34:16.589,0.08,0.39,9.8
2025-06-18 16:34:16.608,0.08,0.38,9.79
2025-06-18 16:34:16.626,0.08,0.38,9.79
2025-06-18 16:34:16.645,0.08,0.38,9.79
2025-06-18 16:34:16.663,0.08,0.38,9.79
2025-06-18 16:34:16.691,0.08,0.39,9.8
2025-06-18 16:34:16.710,0.08,0.39,9.8
2025-06-18 16:34:16.728,0.09,0.38,9.8
2025-06-18 16:34:16.747,0.09,0.38,9.8
2025-06-18 16:34:16.766,0.08,0.39,9.79
2025-06-18 16:34:16.784,0.08,0.39,9.79
2025-06-18 16:34:16.803,0.08,0.38,9.79
2025-06-18 16:34:16.831,0.08,0.38,9.79
2025-06-18 16:34:16.849,0.08,0.38,9.79
2025-06-18 16:34:16.868,0.08,0.38,9.79
2025-06-18 16:34:16.886,0.08,0.38,9.79
2025-06-18 16:34:16.905,0.08,0.38,9.79
2025-06-18 16:34:16.924,0.08,0.39,9.8
2025-06-18 16:34:16.951,0.08,0.39,9.8
2025-06-18 16:34:16.970,0.08,0.38,9.79
2025-06-18 16:36:27.020,0.08,0.38,9.8
2025-06-18 16:36:27.490,0.09,0.39,9.8
2025-06-18 16:36:27.670,0.09,0.39,9.8
2025-06-18 16:36:27.105,0.09,0.38,9.79
2025-06-18 16:36:27.123,0.08,0.39,9.8
2025-06-18 16:36:27.142,0.08,0.39,9.79
2025-06-18 16:36:27.170,0.08,0.38,9.79
2025-06-18 16:36:27.188,0.08,0.38,9.79
2025-06-18 16:36:27.207,0.08,0.38,9.79
2025-06-18 16:36:27.225,0.08,0.38,9.79
2025-06-18 16:36:27.244,0.08,0.39,9.79
2025-06-18 16:36:27.263,0.08,0.39,9.79
2025-06-18 16:36:27.290,0.09,0.39,9.79
2025-06-18 16:36:27.309,0.09,0.39,9.79
2025-06-18 16:36:27.328,0.09,0.38,9.8
2025-06-18 16:36:27.346,0.09,0.38,9.8
2025-06-18 16:36:27.365,0.08,0.38,9.79
2025-06-18 16:36:27.383,0.08,0.38,9.79
2025-06-18 16:36:27.402,0.08,0.39,9.79
2025-06-18 16:36:27.430,0.08,0.39,9.79
2025-06-18 16:36:27.448,0.08,0.39,9.79
2025-06-18 16:36:27.467,0.08,0.39,9.79
2025-06-18 16:36:27.486,0.08,0.38,9.8
2025-06-18 16:36:27.504,0.08,0.38,9.8
2025-06-18 16:36:27.551,0.09,0.39,9.79
2025-06-18 16:36:27.569,0.09,0.38,9.8
2025-06-18 16:36:27.607,0.08,0.39,9.8
2025-06-18 16:36:27.625,0.09,0.39,9.8
2025-06-18 16:36:27.644,0.09,0.39,9.8
2025-06-18 16:36:27.672,0.08,0.38,9.8
2025-06-18 16:36:27.690,0.09,0.39,9.79
2025-06-18 16:36:27.709,0.08,0.39,9.8
2025-06-18 16:36:27.727,0.08,0.38,9.79
2025-06-18 16:36:27.746,0.08,0.39,9.8
2025-06-18 16:36:27.793,0.08,0.38,9.79
2025-06-18 16:36:27.811,0.08,0.38,9.79
2025-06-18 16:36:27.830,0.08,0.38,9.79
2025-06-18 16:36:27.848,0.08,0.38,9.79
2025-06-18 16:36:27.886,0.09,0.38,9.8
2025-06-18 16:36:27.914,0.08,0.38,9.8
2025-06-18 16:36:27.951,0.08,0.38,9.79
2025-06-18 16:36:27.970,0.08,0.38,9.79
2025-06-18 16:36:27.988,0.09,0.38,9.79
2025-06-18 16:36:28.070,0.09,0.39,9.8
2025-06-18 16:36:28.350,0.08,0.38,9.8
2025-06-18 16:36:28.530,0.08,0.39,9.8
2025-06-18 16:36:28.720,0.09,0.39,9.79
2025-06-18 16:36:28.910,0.08,0.38,9.79
2025-06-18 16:36:28.128,0.09,0.39,9.8
2025-06-18 16:36:28.156,0.09,0.39,9.8
2025-06-18 16:36:28.174,0.08,0.39,9.8
2025-06-18 16:36:28.193,0.08,0.39,9.8
2025-06-18 16:36:28.230,0.08,0.39,9.8
2025-06-18 16:36:28.249,0.08,0.38,9.79
2025-06-18 16:36:28.296,0.08,0.39,9.8
2025-06-18 16:36:28.314,0.08,0.39,9.79
2025-06-18 16:36:28.333,0.08,0.39,9.8
2025-06-18 16:36:28.351,0.08,0.39,9.8
2025-06-18 16:36:28.370,0.08,0.39,9.79
2025-06-18 16:36:28.398,0.08,0.38,9.79
2025-06-18 16:36:28.417,0.09,0.38,9.79
2025-06-18 16:36:28.435,0.08,0.38,9.79
2025-06-18 16:36:28.472,0.08,0.38,9.8
2025-06-18 16:36:28.491,0.08,0.38,9.8
2025-06-18 16:36:28.519,0.08,0.39,9.79
2025-06-18 16:36:28.537,0.08,0.39,9.79
2025-06-18 16:36:28.575,0.08,0.39,9.79
2025-06-18 16:36:28.593,0.08,0.39,9.79
2025-06-18 16:36:28.640,0.08,0.39,9.79
2025-06-18 16:36:28.659,0.08,0.38,9.8
2025-06-18 16:36:28.678,0.09,0.38,9.79
2025-06-18 16:36:28.696,0.09,0.38,9.79
2025-06-18 16:36:28.715,0.09,0.38,9.79
2025-06-18 16:36:28.733,0.08,0.39,9.79
2025-06-18 16:36:28.761,0.08,0.39,9.79
2025-06-18 16:36:28.780,0.08,0.38,9.8
2025-06-18 16:36:28.798,0.08,0.38,9.8
2025-06-18 16:36:28.817,0.09,0.39,9.8
2025-06-18 16:36:28.836,0.09,0.39,9.8
2025-06-18 16:36:28.854,0.08,0.39,9.79
2025-06-18 16:36:28.873,0.08,0.39,9.79
2025-06-18 16:36:28.901,0.08,0.38,9.8
2025-06-18 16:36:28.919,0.08,0.38,9.8
2025-06-18 16:36:28.938,0.08,0.39,9.79
2025-06-18 16:36:28.956,0.08,0.39,9.79
2025-06-18 16:36:28.975,0.08,0.39,9.8
2025-06-18 16:36:28.994,0.08,0.39,9.8
2025-06-18 16:36:29.210,0.08,0.39,9.79
2025-06-18 16:36:29.400,0.08,0.39,9.79
2025-06-18 16:36:29.780,0.08,0.39,9.79
2025-06-18 16:36:29.970,0.09,0.38,9.8
2025-06-18 16:36:29.135,0.08,0.39,9.8
2025-06-18 16:36:29.163,0.08,0.39,9.8
2025-06-18 16:36:29.181,0.08,0.39,9.79
2025-06-18 16:36:29.200,0.08,0.38,9.8
2025-06-18 16:36:29.218,0.09,0.39,9.8
2025-06-18 16:36:29.237,0.08,0.39,9.8
2025-06-18 16:36:29.255,0.08,0.39,9.8
2025-06-18 16:36:29.283,0.08,0.39,9.79
2025-06-18 16:36:29.321,0.08,0.39,9.8
2025-06-18 16:36:29.339,0.08,0.39,9.8
2025-06-18 16:36:29.358,0.08,0.39,9.8
2025-06-18 16:36:29.376,0.08,0.39,9.8
2025-06-18 16:36:29.423,0.09,0.39,9.79
2025-06-18 16:36:29.441,0.09,0.38,9.79
2025-06-18 16:36:29.479,0.08,0.39,9.8
2025-06-18 16:36:29.498,0.08,0.39,9.79
2025-06-18 16:36:29.526,0.08,0.39,9.79
2025-06-18 16:36:29.544,0.08,0.38,9.8
2025-06-18 16:36:29.563,0.08,0.39,9.8
2025-06-18 16:36:29.581,0.08,0.38,9.8
2025-06-18 16:36:29.600,0.08,0.38,9.79
2025-06-18 16:36:29.619,0.08,0.38,9.79
2025-06-18 16:36:29.665,0.08,0.39,9.79
2025-06-18 16:36:29.684,0.08,0.39,9.79
2025-06-18 16:36:29.702,0.09,0.38,9.8
2025-06-18 16:36:29.721,0.09,0.38,9.8
2025-06-18 16:36:29.767,0.08,0.39,9.79
2025-06-18 16:36:29.786,0.08,0.38,9.79
2025-06-18 16:36:29.824,0.08,0.39,9.8
2025-06-18 16:36:29.842,0.09,0.38,9.79
2025-06-18 16:36:29.861,0.08,0.39,9.79
2025-06-18 16:36:29.889,0.08,0.39,9.79
2025-06-18 16:36:29.907,0.08,0.39,9.79
2025-06-18 16:36:29.926,0.08,0.39,9.79
2025-06-18 16:36:29.944,0.09,0.39,9.8
2025-06-18 16:36:29.963,0.09,0.39,9.8
2025-06-18 16:36:29.982,0.08,0.38,9.79
2025-06-18 16:36:30.100,0.08,0.39,9.8
2025-06-18 16:36:30.280,0.08,0.39,9.8
2025-06-18 16:36:30.470,0.08,0.38,9.8
2025-06-18 16:36:30.650,0.09,0.38,9.79
2025-06-18 16:36:30.840,0.08,0.38,9.8
2025-06-18 16:36:30.102,0.08,0.38,9.8
2025-06-18 16:36:30.121,0.08,0.38,9.8
2025-06-18 16:36:30.149,0.08,0.38,9.8
2025-06-18 16:36:30.168,0.09,0.39,9.8
2025-06-18 16:36:30.186,0.09,0.39,9.8
2025-06-18 16:36:30.205,0.09,0.39,9.8
2025-06-18 16:36:30.223,0.09,0.39,9.8
2025-06-18 16:36:30.242,0.08,0.39,9.8
2025-06-18 16:36:30.308,0.08,0.39,9.79
2025-06-18 16:36:30.326,0.08,0.38,9.79
2025-06-18 16:36:30.364,0.08,0.38,9.8
2025-06-18 16:36:30.411,0.08,0.39,9.8
2025-06-18 16:36:30.430,0.08,0.39,9.8
2025-06-18 16:36:30.449,0.08,0.38,9.8
2025-06-18 16:36:30.467,0.08,0.38,9.8
2025-06-18 16:36:30.486,0.08,0.39,9.8
2025-06-18 16:36:30.504,0.08,0.39,9.79
2025-06-18 16:36:30.532,0.09,0.39,9.8
2025-06-18 16:36:30.551,0.09,0.38,9.79
2025-06-18 16:36:30.569,0.08,0.39,9.79
2025-06-18 16:36:30.588,0.09,0.39,9.8
2025-06-18 16:36:30.626,0.08,0.38,9.8
2025-06-18 16:36:30.645,0.08,0.38,9.79
2025-06-18 16:36:30.692,0.09,0.38,9.8
2025-06-18 16:36:30.710,0.08,0.38,9.79
2025-06-18 16:36:30.729,0.08,0.39,9.79
2025-06-18 16:36:30.747,0.08,0.38,9.8
2025-06-18 16:36:30.766,0.08,0.39,9.8
2025-06-18 16:36:30.794,0.08,0.38,9.79
2025-06-18 16:36:30.813,0.08,0.38,9.79
2025-06-18 16:36:30.831,0.09,0.39,9.8
2025-06-18 16:36:30.850,0.08,0.38,9.8
2025-06-18 16:36:30.868,0.09,0.39,9.79
2025-06-18 16:36:30.887,0.08,0.39,9.79
2025-06-18 16:36:30.933,0.08,0.39,9.79
2025-06-18 16:36:30.952,0.09,0.39,9.8
2025-06-18 16:36:30.970,0.09,0.38,9.8
2025-06-18 16:36:30.989,0.08,0.39,9.8
2025-06-18 16:36:31.080,0.08,0.39,9.79
2025-06-18 16:36:31.260,0.08,0.38,9.8
2025-06-18 16:36:31.540,0.08,0.39,9.79
2025-06-18 16:36:31.730,0.08,0.38,9.79
2025-06-18 16:36:31.910,0.08,0.38,9.79
2025-06-18 16:36:31.110,0.08,0.39,9.79
2025-06-18 16:36:31.147,0.08,0.38,9.79
2025-06-18 16:36:31.175,0.08,0.39,9.8
2025-06-18 16:36:31.212,0.08,0.38,9.79
2025-06-18 16:36:31.231,0.08,0.38,9.79
2025-06-18 16:36:31.249,0.08,0.39,9.8
2025-06-18 16:36:31.268,0.08,0.38,9.8
2025-06-18 16:36:31.296,0.08,0.38,9.79
2025-06-18 16:36:31.314,0.08,0.39,9.8
2025-06-18 16:36:31.333,0.08,0.39,9.79
2025-06-18 16:36:31.370,0.08,0.39,9.8
2025-06-18 16:36:31.389,0.08,0.38,9.79
2025-06-18 16:36:31.417,0.09,0.39,9.79
2025-06-18 16:36:31.435,0.08,0.38,9.8
2025-06-18 16:36:31.454,0.08,0.39,9.79
2025-06-18 16:36:31.472,0.08,0.39,9.79
2025-06-18 16:36:31.510,0.08,0.38,9.79
2025-06-18 16:36:31.538,0.08,0.38,9.8
2025-06-18 16:36:31.557,0.08,0.39,9.8
2025-06-18 16:36:31.575,0.09,0.39,9.79
2025-06-18 16:36:31.612,0.08,0.38,9.79
2025-06-18 16:36:31.631,0.08,0.38,9.79
2025-06-18 16:36:31.659,0.08,0.39,9.79
2025-06-18 16:36:31.677,0.08,0.39,9.79
2025-06-18 16:36:31.696,0.08,0.38,9.8
2025-06-18 16:36:31.714,0.08,0.38,9.79
2025-06-18 16:36:31.733,0.08,0.39,9.79
2025-06-18 16:36:31.752,0.08,0.39,9.8
2025-06-18 16:36:31.779,0.08,0.39,9.79
2025-06-18 16:36:31.798,0.09,0.39,9.8
2025-06-18 16:36:31.817,0.08,0.38,9.79
2025-06-18 16:36:31.835,0.08,0.38,9.8
2025-06-18 16:36:31.854,0.08,0.38,9.79
2025-06-18 16:36:31.872,0.09,0.38,9.79
2025-06-18 16:36:31.891,0.08,0.39,9.8
2025-06-18 16:36:31.919,0.08,0.38,9.79
2025-06-18 16:36:31.937,0.08,0.38,9.8
2025-06-18 16:36:31.956,0.08,0.39,9.8
2025-06-18 16:36:31.993,0.08,0.39,9.8
2025-06-18 16:36:32.120,0.08,0.39,9.79
2025-06-18 16:36:32.590,0.08,0.39,9.79
2025-06-18 16:36:32.770,0.09,0.39,9.8
2025-06-18 16:36:32.960,0.08,0.39,9.8
2025-06-18 16:36:32.114,0.08,0.39,9.8
2025-06-18 16:36:32.133,0.08,0.39,9.8
2025-06-18 16:36:32.161,0.08,0.38,9.8
2025-06-18 16:36:32.180,0.08,0.38,9.8
2025-06-18 16:36:32.198,0.08,0.38,9.79
2025-06-18 16:36:32.217,0.08,0.39,9.79
2025-06-18 16:36:32.235,0.08,0.38,9.8
2025-06-18 16:36:32.254,0.08,0.39,9.79
2025-06-18 16:36:32.300,0.08,0.38,9.79
2025-06-18 16:36:32.319,0.08,0.39,9.79
2025-06-18 16:36:32.337,0.09,0.38,9.79
2025-06-18 16:36:32.356,0.08,0.38,9.79
2025-06-18 16:36:32.375,0.09,0.38,9.8
2025-06-18 16:36:32.393,0.09,0.39,9.8
2025-06-18 16:36:32.421,0.08,0.38,9.79
2025-06-18 16:36:32.440,0.08,0.38,9.79
2025-06-18 16:36:32.458,0.09,0.39,9.8
2025-06-18 16:36:32.495,0.08,0.38,9.8
2025-06-18 16:36:32.514,0.08,0.39,9.8
2025-06-18 16:36:32.561,0.08,0.38,9.8
2025-06-18 16:36:32.579,0.08,0.39,9.8
2025-06-18 16:36:32.598,0.08,0.39,9.79
2025-06-18 16:36:32.616,0.09,0.39,9.79
2025-06-18 16:36:32.635,0.09,0.38,9.8
2025-06-18 16:36:32.663,0.08,0.38,9.79
2025-06-18 16:36:32.682,0.08,0.39,9.79
2025-06-18 16:36:32.700,0.08,0.39,9.8
2025-06-18 16:36:32.737,0.08,0.39,9.8
2025-06-18 16:36:32.756,0.08,0.39,9.79
2025-06-18 16:36:32.784,0.08,0.39,9.79
2025-06-18 16:36:32.802,0.08,0.39,9.79
2025-06-18 16:36:32.840,0.08,0.39,9.8
2025-06-18 16:36:32.858,0.09,0.39,9.79
2025-06-18 16:36:32.905,0.09,0.39,9.79
2025-06-18 16:36:32.924,0.09,0.39,9.8
2025-06-18 16:36:32.943,0.08,0.39,9.8
2025-06-18 16:36:32.961,0.08,0.39,9.79
2025-06-18 16:36:32.980,0.08,0.39,9.79
2025-06-18 16:36:32.998,0.09,0.39,9.8
2025-06-18 16:36:33.260,0.09,0.39,9.8
2025-06-18 16:36:33.450,0.08,0.39,9.8
2025-06-18 16:36:33.630,0.08,0.39,9.8
2025-06-18 16:36:33.820,0.08,0.39,9.79
2025-06-18 16:36:33.101,0.08,0.39,9.79
2025-06-18 16:36:33.119,0.08,0.39,9.8
2025-06-18 16:36:33.138,0.08,0.39,9.8
2025-06-18 16:36:33.166,0.09,0.39,9.79
2025-06-18 16:36:33.184,0.09,0.39,9.79
2025-06-18 16:36:33.203,0.09,0.38,9.79
2025-06-18 16:36:33.221,0.09,0.38,9.79
2025-06-18 16:36:33.240,0.08,0.39,9.79
2025-06-18 16:36:33.258,0.08,0.39,9.8
2025-06-18 16:36:33.286,0.08,0.39,9.79
2025-06-18 16:36:33.305,0.08,0.38,9.8
2025-06-18 16:36:33.342,0.08,0.39,9.8
2025-06-18 16:36:33.361,0.09,0.38,9.79
2025-06-18 16:36:33.407,0.08,0.39,9.8
2025-06-18 16:36:33.426,0.08,0.39,9.8
2025-06-18 16:36:33.445,0.08,0.39,9.8
2025-06-18 16:36:33.463,0.09,0.38,9.79
2025-06-18 16:36:33.482,0.09,0.39,9.8
2025-06-18 16:36:33.500,0.08,0.38,9.8
2025-06-18 16:36:33.528,0.09,0.38,9.79
2025-06-18 16:36:33.547,0.08,0.39,9.8
2025-06-18 16:36:33.584,0.08,0.38,9.79
2025-06-18 16:36:33.603,0.08,0.38,9.79
2025-06-18 16:36:33.621,0.09,0.38,9.8
2025-06-18 16:36:33.649,0.09,0.38,9.8
2025-06-18 16:36:33.686,0.08,0.39,9.8
2025-06-18 16:36:33.705,0.08,0.39,9.8
2025-06-18 16:36:33.743,0.09,0.39,9.8
2025-06-18 16:36:33.771,0.08,0.38,9.8
2025-06-18 16:36:33.789,0.09,0.38,9.79
2025-06-18 16:36:33.808,0.09,0.38,9.79
2025-06-18 16:36:33.826,0.08,0.38,9.79
2025-06-18 16:36:33.845,0.08,0.38,9.8
2025-06-18 16:36:33.863,0.08,0.39,9.8
2025-06-18 16:36:33.891,0.09,0.39,9.8
2025-06-18 16:36:33.929,0.08,0.39,9.79
2025-06-18 16:36:33.947,0.08,0.39,9.79
2025-06-18 16:36:33.966,0.09,0.38,9.79
2025-06-18 16:36:33.984,0.09,0.38,9.79
2025-06-18 16:36:34.310,0.09,0.38,9.79
2025-06-18 16:36:34.490,0.08,0.39,9.79
2025-06-18 16:36:34.870,0.08,0.38,9.8
2025-06-18 16:36:34.106,0.08,0.38,9.79
2025-06-18 16:36:34.134,0.09,0.38,9.79
2025-06-18 16:36:34.152,0.08,0.38,9.79
2025-06-18 16:36:34.171,0.08,0.39,9.79
2025-06-18 16:36:34.189,0.08,0.39,9.8
2025-06-18 16:36:34.208,0.08,0.39,9.8
2025-06-18 16:36:34.227,0.09,0.39,9.8
2025-06-18 16:36:34.273,0.08,0.38,9.79
2025-06-18 16:36:34.292,0.08,0.38,9.79
2025-06-18 16:36:34.310,0.08,0.39,9.8
2025-06-18 16:36:34.329,0.08,0.39,9.8
2025-06-18 16:36:34.375,0.08,0.39,9.79
2025-06-18 16:36:34.394,0.09,0.38,9.8
2025-06-18 16:36:34.432,0.09,0.39,9.79
2025-06-18 16:36:34.450,0.09,0.39,9.79
2025-06-18 16:36:34.469,0.08,0.39,9.8
2025-06-18 16:36:34.497,0.09,0.38,9.79
2025-06-18 16:36:34.515,0.08,0.38,9.79
2025-06-18 16:36:34.534,0.09,0.39,9.8
2025-06-18 16:36:34.552,0.08,0.39,9.8
2025-06-18 16:36:34.571,0.09,0.38,9.8
2025-06-18 16:36:34.618,0.09,0.39,9.79
2025-06-18 16:36:34.636,0.09,0.39,9.79
2025-06-18 16:36:34.655,0.09,0.38,9.8
2025-06-18 16:36:34.673,0.09,0.38,9.8
2025-06-18 16:36:34.692,0.09,0.38,9.79
2025-06-18 16:36:34.710,0.09,0.38,9.79
2025-06-18 16:36:34.757,0.08,0.38,9.8
2025-06-18 16:36:34.776,0.08,0.39,9.8
2025-06-18 16:36:34.813,0.08,0.39,9.8
2025-06-18 16:36:34.832,0.09,0.39,9.79
2025-06-18 16:36:34.860,0.08,0.38,9.79
2025-06-18 16:36:34.878,0.08,0.38,9.79
2025-06-18 16:36:34.897,0.08,0.38,9.8
2025-06-18 16:36:34.915,0.08,0.38,9.8
2025-06-18 16:36:34.934,0.08,0.39,9.8
2025-06-18 16:36:34.953,0.08,0.39,9.8
2025-06-18 16:36:34.980,0.08,0.38,9.79
2025-06-18 16:36:34.999,0.08,0.38,9.79
2025-06-18 16:36:35.180,0.08,0.38,9.8
2025-06-18 16:36:35.360,0.08,0.38,9.8
2025-06-18 16:36:35.550,0.08,0.38,9.79
2025-06-18 16:36:35.730,0.08,0.38,9.79
2025-06-18 16:36:35.920,0.08,0.39,9.8
2025-06-18 16:36:35.120,0.08,0.39,9.8
2025-06-18 16:36:35.138,0.08,0.39,9.79
2025-06-18 16:36:35.157,0.08,0.39,9.79
2025-06-18 16:36:35.176,0.08,0.39,9.8
2025-06-18 16:36:35.194,0.08,0.39,9.8
2025-06-18 16:36:35.241,0.08,0.38,9.8
2025-06-18 16:36:35.259,0.08,0.39,9.79
2025-06-18 16:36:35.297,0.08,0.38,9.79
2025-06-18 16:36:35.315,0.08,0.39,9.79
2025-06-18 16:36:35.334,0.09,0.39,9.8
2025-06-18 16:36:35.362,0.08,0.39,9.79
2025-06-18 16:36:35.380,0.08,0.39,9.79
2025-06-18 16:36:35.399,0.09,0.39,9.79
2025-06-18 16:36:35.417,0.09,0.38,9.79
2025-06-18 16:36:35.436,0.08,0.38,9.8
2025-06-18 16:36:35.483,0.08,0.39,9.8
2025-06-18 16:36:35.501,0.08,0.39,9.8
2025-06-18 16:36:35.520,0.08,0.38,9.79
2025-06-18 16:36:35.538,0.08,0.38,9.79
2025-06-18 16:36:35.576,0.08,0.39,9.79
2025-06-18 16:36:35.604,0.08,0.38,9.8
2025-06-18 16:36:35.641,0.08,0.39,9.8
2025-06-18 16:36:35.660,0.08,0.39,9.79
2025-06-18 16:36:35.678,0.08,0.39,9.8
2025-06-18 16:36:35.697,0.08,0.38,9.79
2025-06-18 16:36:35.725,0.08,0.38,9.79
2025-06-18 16:36:35.743,0.08,0.39,9.8
2025-06-18 16:36:35.762,0.08,0.39,9.8
2025-06-18 16:36:35.781,0.08,0.38,9.8
2025-06-18 16:36:35.799,0.08,0.38,9.8
2025-06-18 16:36:35.818,0.09,0.39,9.8
2025-06-18 16:36:35.864,0.08,0.39,9.8
2025-06-18 16:36:35.883,0.08,0.39,9.8
2025-06-18 16:36:35.901,0.09,0.39,9.8
2025-06-18 16:36:35.920,0.09,0.39,9.8
2025-06-18 16:36:35.939,0.08,0.38,9.8
2025-06-18 16:36:35.957,0.08,0.38,9.8
2025-06-18 16:36:35.985,0.08,0.39,9.79
2025-06-18 16:36:36.040,0.08,0.39,9.79
2025-06-18 16:36:36.220,0.08,0.38,9.8
2025-06-18 16:36:36.410,0.08,0.38,9.8
2025-06-18 16:36:36.590,0.08,0.39,9.79
2025-06-18 16:36:36.780,0.08,0.39,9.79
2025-06-18 16:36:36.124,0.08,0.39,9.79
2025-06-18 16:36:36.143,0.08,0.38,9.8
2025-06-18 16:36:36.180,0.08,0.39,9.79
2025-06-18 16:36:36.199,0.08,0.38,9.79
2025-06-18 16:36:36.227,0.08,0.38,9.79
2025-06-18 16:36:36.245,0.08,0.38,9.79
2025-06-18 16:36:36.264,0.08,0.39,9.79
2025-06-18 16:36:36.282,0.08,0.39,9.79
2025-06-18 16:36:36.301,0.09,0.39,9.79
2025-06-18 16:36:36.320,0.09,0.39,9.79
2025-06-18 16:36:36.347,0.08,0.38,9.8
2025-06-18 16:36:36.366,0.08,0.38,9.8
2025-06-18 16:36:36.385,0.08,0.38,9.79
2025-06-18 16:36:36.403,0.08,0.38,9.79
2025-06-18 16:36:36.422,0.08,0.38,9.8
2025-06-18 16:36:36.440,0.08,0.38,9.8
2025-06-18 16:36:36.459,0.09,0.39,9.79
2025-06-18 16:36:36.487,0.09,0.39,9.79
2025-06-18 16:36:36.505,0.08,0.39,9.79
2025-06-18 16:36:36.524,0.08,0.39,9.79
2025-06-18 16:36:36.543,0.08,0.38,9.8
2025-06-18 16:36:36.561,0.08,0.38,9.8
2025-06-18 16:36:36.608,0.08,0.38,9.79
2025-06-18 16:36:36.626,0.09,0.39,9.79
2025-06-18 16:36:36.664,0.08,0.38,9.79
2025-06-18 16:36:36.682,0.08,0.38,9.79
2025-06-18 16:36:36.701,0.09,0.39,9.8
2025-06-18 16:36:36.729,0.09,0.39,9.8
2025-06-18 16:36:36.747,0.09,0.39,9.8
2025-06-18 16:36:36.766,0.08,0.39,9.79
2025-06-18 16:36:36.784,0.08,0.39,9.79
2025-06-18 16:36:36.803,0.08,0.39,9.79
2025-06-18 16:36:36.822,0.08,0.39,9.79
2025-06-18 16:36:36.850,0.08,0.39,9.79
2025-06-18 16:36:36.868,0.08,0.39,9.79
2025-06-18 16:36:36.887,0.08,0.38,9.79
2025-06-18 16:36:36.905,0.08,0.38,9.79
2025-06-18 16:36:36.924,0.09,0.39,9.79
2025-06-18 16:36:36.942,0.09,0.39,9.79
2025-06-18 16:36:36.961,0.08,0.39,9.8
2025-06-18 16:36:36.989,0.08,0.39,9.8
2025-06-18 16:36:37.080,0.08,0.39,9.79
2025-06-18 16:36:37.260,0.08,0.39,9.79
2025-06-18 16:36:37.450,0.08,0.39,9.79
2025-06-18 16:36:37.630,0.08,0.39,9.79
2025-06-18 16:36:37.820,0.08,0.39,9.79
2025-06-18 16:36:37.148,0.09,0.38,9.8
2025-06-18 16:36:37.166,0.09,0.38,9.8
2025-06-18 16:36:37.204,0.08,0.39,9.79
2025-06-18 16:36:37.251,0.08,0.39,9.8
2025-06-18 16:36:37.270,0.09,0.39,9.8
2025-06-18 16:36:37.289,0.08,0.39,9.79
2025-06-18 16:36:37.307,0.08,0.39,9.79
2025-06-18 16:36:37.326,0.09,0.39,9.79
2025-06-18 16:36:37.344,0.09,0.39,9.79
2025-06-18 16:36:37.372,0.08,0.39,9.79
2025-06-18 16:36:37.391,0.08,0.39,9.79
2025-06-18 16:36:37.409,0.08,0.39,9.79
2025-06-18 16:36:37.428,0.08,0.39,9.79
2025-06-18 16:36:37.466,0.08,0.39,9.79
2025-06-18 16:36:37.485,0.09,0.39,9.79
2025-06-18 16:36:37.532,0.08,0.39,9.79
2025-06-18 16:36:37.550,0.08,0.39,9.8
2025-06-18 16:36:37.569,0.08,0.39,9.79
2025-06-18 16:36:37.587,0.08,0.39,9.8
2025-06-18 16:36:37.606,0.08,0.38,9.79
2025-06-18 16:36:37.634,0.09,0.38,9.79
2025-06-18 16:36:37.653,0.09,0.39,9.79
2025-06-18 16:36:37.690,0.08,0.38,9.8
2025-06-18 16:36:37.708,0.08,0.38,9.8
2025-06-18 16:36:37.727,0.09,0.38,9.8
2025-06-18 16:36:37.755,0.09,0.38,9.8
2025-06-18 16:36:37.792,0.08,0.39,9.79
2025-06-18 16:36:37.811,0.08,0.39,9.8
2025-06-18 16:36:37.849,0.08,0.38,9.79
2025-06-18 16:36:37.877,0.08,0.39,9.8
2025-06-18 16:36:37.895,0.08,0.38,9.8
2025-06-18 16:36:37.914,0.08,0.39,9.8
2025-06-18 16:36:37.932,0.08,0.39,9.8
2025-06-18 16:36:37.951,0.08,0.39,9.8
2025-06-18 16:36:37.969,0.08,0.39,9.8
2025-06-18 16:36:37.997,0.08,0.38,9.79
2025-06-18 16:36:38.160,0.08,0.38,9.79
2025-06-18 16:36:38.350,0.08,0.39,9.8
2025-06-18 16:36:38.530,0.08,0.39,9.8
2025-06-18 16:36:38.720,0.08,0.39,9.8
2025-06-18 16:36:38.900,0.08,0.39,9.8
2025-06-18 16:36:38.109,0.08,0.39,9.8
2025-06-18 16:36:38.137,0.08,0.39,9.8
2025-06-18 16:36:38.155,0.08,0.38,9.8
2025-06-18 16:36:38.174,0.08,0.38,9.8
2025-06-18 16:36:38.192,0.09,0.38,9.79
2025-06-18 16:36:38.211,0.09,0.38,9.79
2025-06-18 16:36:38.230,0.08,0.38,9.79
2025-06-18 16:36:38.258,0.08,0.38,9.79
2025-06-18 16:36:38.296,0.08,0.38,9.79
2025-06-18 16:36:38.314,0.08,0.39,9.79
2025-06-18 16:36:38.352,0.08,0.39,9.8
2025-06-18 16:36:38.371,0.09,0.39,9.8
2025-06-18 16:36:38.399,0.09,0.38,9.8
2025-06-18 16:36:38.417,0.08,0.38,9.8
2025-06-18 16:36:38.436,0.08,0.38,9.79
2025-06-18 16:36:38.454,0.09,0.38,9.79
2025-06-18 16:36:38.473,0.08,0.38,9.79
2025-06-18 16:36:38.492,0.08,0.38,9.79
2025-06-18 16:36:38.538,0.09,0.39,9.79
2025-06-18 16:36:38.557,0.09,0.39,9.79
2025-06-18 16:36:38.575,0.08,0.38,9.79
2025-06-18 16:36:38.594,0.08,0.38,9.79
2025-06-18 16:36:38.612,0.08,0.39,9.8
2025-06-18 16:36:38.640,0.08,0.39,9.8
2025-06-18 16:36:38.677,0.08,0.39,9.8
2025-06-18 16:36:38.696,0.09,0.39,9.79
2025-06-18 16:36:38.734,0.09,0.39,9.79
2025-06-18 16:36:38.781,0.07,0.39,9.8
2025-06-18 16:36:38.799,0.08,0.39,9.8
2025-06-18 16:36:38.818,0.08,0.39,9.79
2025-06-18 16:36:38.836,0.08,0.39,9.79
2025-06-18 16:36:38.855,0.08,0.39,9.8
2025-06-18 16:36:38.883,0.09,0.39,9.8
2025-06-18 16:36:38.902,0.08,0.38,9.79
2025-06-18 16:36:38.920,0.08,0.39,9.79
2025-06-18 16:36:38.939,0.09,0.38,9.79
2025-06-18 16:36:38.957,0.08,0.38,9.79
2025-06-18 16:36:39.040,0.09,0.39,9.79
2025-06-18 16:36:39.220,0.08,0.39,9.79
2025-06-18 16:36:39.600,0.09,0.39,9.79
2025-06-18 16:36:39.780,0.08,0.39,9.8
2025-06-18 16:36:39.970,0.08,0.38,9.79
2025-06-18 16:36:39.125,0.09,0.38,9.79
2025-06-18 16:36:39.143,0.08,0.39,9.79
2025-06-18 16:36:39.162,0.08,0.39,9.79
2025-06-18 16:36:39.180,0.09,0.38,9.79
2025-06-18 16:36:39.218,0.09,0.38,9.8
2025-06-18 16:36:39.246,0.09,0.39,9.79
2025-06-18 16:36:39.264,0.09,0.39,9.8
2025-06-18 16:36:39.283,0.08,0.39,9.79
2025-06-18 16:36:39.320,0.09,0.38,9.8
2025-06-18 16:36:39.339,0.09,0.39,9.8
2025-06-18 16:36:39.386,0.08,0.38,9.8
2025-06-18 16:36:39.404,0.08,0.39,9.8
2025-06-18 16:36:39.423,0.08,0.38,9.79
2025-06-18 16:36:39.441,0.09,0.38,9.79
2025-06-18 16:36:39.460,0.08,0.38,9.79
2025-06-18 16:36:39.488,0.08,0.39,9.8
2025-06-18 16:36:39.507,0.08,0.39,9.79
2025-06-18 16:36:39.525,0.08,0.39,9.79
2025-06-18 16:36:39.562,0.09,0.38,9.8
2025-06-18 16:36:39.581,0.09,0.38,9.8
2025-06-18 16:36:39.609,0.08,0.39,9.8
2025-06-18 16:36:39.627,0.09,0.39,9.8
2025-06-18 16:36:39.665,0.09,0.39,9.8
2025-06-18 16:36:39.683,0.08,0.38,9.79
2025-06-18 16:36:39.730,0.09,0.38,9.8
2025-06-18 16:36:39.749,0.08,0.39,9.8
2025-06-18 16:36:39.768,0.08,0.39,9.8
2025-06-18 16:36:39.786,0.08,0.39,9.8
2025-06-18 16:36:39.805,0.08,0.39,9.8
2025-06-18 16:36:39.823,0.08,0.39,9.8
2025-06-18 16:36:39.851,0.08,0.39,9.8
2025-06-18 16:36:39.870,0.08,0.38,9.8
2025-06-18 16:36:39.888,0.08,0.38,9.8
2025-06-18 16:36:39.907,0.09,0.39,9.8
2025-06-18 16:36:39.926,0.09,0.39,9.8
2025-06-18 16:36:39.944,0.08,0.39,9.79
2025-06-18 16:36:39.963,0.08,0.39,9.79
2025-06-18 16:36:39.991,0.08,0.38,9.79
2025-06-18 16:36:40.090,0.08,0.38,9.79
2025-06-18 16:36:40.280,0.08,0.39,9.79
2025-06-18 16:36:40.460,0.08,0.39,9.79
2025-06-18 16:36:40.650,0.09,0.39,9.78
2025-06-18 16:36:40.840,0.09,0.39,9.78
2025-06-18 16:36:40.111,0.08,0.38,9.8
2025-06-18 16:36:40.130,0.08,0.39,9.79
2025-06-18 16:36:40.168,0.08,0.39,9.79
2025-06-18 16:36:40.187,0.08,0.39,9.8
2025-06-18 16:36:40.225,0.08,0.38,9.79
2025-06-18 16:36:40.253,0.08,0.38,9.8
2025-06-18 16:36:40.271,0.08,0.39,9.8
2025-06-18 16:36:40.290,0.08,0.38,9.8
2025-06-18 16:36:40.308,0.08,0.39,9.79
2025-06-18 16:36:40.327,0.08,0.39,9.8
2025-06-18 16:36:40.345,0.08,0.38,9.79
2025-06-18 16:36:40.373,0.09,0.39,9.8
2025-06-18 16:36:40.411,0.09,0.38,9.79
2025-06-18 16:36:40.429,0.09,0.38,9.79
2025-06-18 16:36:40.448,0.09,0.39,9.79
2025-06-18 16:36:40.466,0.09,0.39,9.79
2025-06-18 16:36:40.513,0.08,0.39,9.8
2025-06-18 16:36:40.531,0.08,0.38,9.8
2025-06-18 16:36:40.569,0.08,0.38,9.8
2025-06-18 16:36:40.588,0.08,0.39,9.8
2025-06-18 16:36:40.616,0.08,0.39,9.8
2025-06-18 16:36:40.634,0.08,0.38,9.79
2025-06-18 16:36:40.653,0.08,0.38,9.79
2025-06-18 16:36:40.671,0.09,0.39,9.8
2025-06-18 16:36:40.690,0.09,0.39,9.8
2025-06-18 16:36:40.709,0.08,0.38,9.8
2025-06-18 16:36:40.736,0.08,0.38,9.8
2025-06-18 16:36:40.755,0.08,0.39,9.8
2025-06-18 16:36:40.774,0.08,0.39,9.8
2025-06-18 16:36:40.792,0.09,0.39,9.8
2025-06-18 16:36:40.811,0.09,0.39,9.8
2025-06-18 16:36:40.829,0.09,0.38,9.79
2025-06-18 16:36:40.848,0.09,0.38,9.79
2025-06-18 16:36:40.876,0.08,0.38,9.8
2025-06-18 16:36:40.894,0.08,0.38,9.8
2025-06-18 16:36:40.913,0.08,0.39,9.8
2025-06-18 16:36:40.932,0.08,0.39,9.8
2025-06-18 16:36:40.950,0.08,0.39,9.79
2025-06-18 16:36:40.969,0.08,0.39,9.79
2025-06-18 16:36:41.150,0.09,0.39,9.8
2025-06-18 16:36:41.330,0.08,0.39,9.79
2025-06-18 16:36:41.710,0.08,0.39,9.8
2025-06-18 16:36:41.900,0.08,0.38,9.79
2025-06-18 16:36:41.118,0.09,0.39,9.79
2025-06-18 16:36:41.136,0.08,0.39,9.8
2025-06-18 16:36:41.155,0.08,0.38,9.79
2025-06-18 16:36:41.173,0.09,0.38,9.79
2025-06-18 16:36:41.192,0.09,0.38,9.79
2025-06-18 16:36:41.211,0.09,0.38,9.8
2025-06-18 16:36:41.257,0.09,0.38,9.79
2025-06-18 16:36:41.276,0.09,0.38,9.79
2025-06-18 16:36:41.294,0.08,0.38,9.8
2025-06-18 16:36:41.313,0.08,0.38,9.8
2025-06-18 16:36:41.359,0.08,0.39,9.8
2025-06-18 16:36:41.378,0.08,0.38,9.79
2025-06-18 16:36:41.416,0.08,0.38,9.79
2025-06-18 16:36:41.434,0.09,0.38,9.79
2025-06-18 16:36:41.453,0.08,0.39,9.79
2025-06-18 16:36:41.481,0.08,0.39,9.79
2025-06-18 16:36:41.499,0.08,0.39,9.79
2025-06-18 16:36:41.518,0.08,0.38,9.8
2025-06-18 16:36:41.536,0.08,0.38,9.8
2025-06-18 16:36:41.555,0.09,0.39,9.8
2025-06-18 16:36:41.574,0.09,0.39,9.8
2025-06-18 16:36:41.602,0.09,0.39,9.79
2025-06-18 16:36:41.620,0.09,0.39,9.79
2025-06-18 16:36:41.639,0.08,0.39,9.79
2025-06-18 16:36:41.657,0.08,0.39,9.79
2025-06-18 16:36:41.676,0.08,0.39,9.79
2025-06-18 16:36:41.694,0.08,0.39,9.79
2025-06-18 16:36:41.713,0.08,0.38,9.79
2025-06-18 16:36:41.741,0.08,0.38,9.79
2025-06-18 16:36:41.760,0.08,0.38,9.8
2025-06-18 16:36:41.778,0.08,0.38,9.8
2025-06-18 16:36:41.797,0.08,0.38,9.79
2025-06-18 16:36:41.815,0.08,0.38,9.79
2025-06-18 16:36:41.834,0.09,0.39,9.79
2025-06-18 16:36:41.900,0.08,0.39,9.79
2025-06-18 16:36:41.918,0.09,0.39,9.8
2025-06-18 16:36:41.956,0.08,0.39,9.79
2025-06-18 16:36:42.030,0.09,0.38,9.8
2025-06-18 16:36:42.220,0.08,0.38,9.79
2025-06-18 16:36:42.410,0.09,0.39,9.79
2025-06-18 16:36:42.590,0.09,0.39,9.79
2025-06-18 16:36:42.780,0.08,0.39,9.79
2025-06-18 16:36:42.960,0.08,0.39,9.79
2025-06-18 16:36:42.124,0.09,0.38,9.79
2025-06-18 16:36:42.143,0.09,0.38,9.79
2025-06-18 16:36:42.161,0.09,0.38,9.8
2025-06-18 16:36:42.180,0.09,0.38,9.8
2025-06-18 16:36:42.218,0.08,0.38,9.8
2025-06-18 16:36:42.237,0.08,0.38,9.8
2025-06-18 16:36:42.284,0.08,0.38,9.8
2025-06-18 16:36:42.302,0.08,0.39,9.79
2025-06-18 16:36:42.321,0.08,0.39,9.8
2025-06-18 16:36:42.339,0.08,0.39,9.79
2025-06-18 16:36:42.358,0.08,0.39,9.79
2025-06-18 16:36:42.386,0.08,0.38,9.8
2025-06-18 16:36:42.405,0.08,0.39,9.79
2025-06-18 16:36:42.442,0.09,0.38,9.8
2025-06-18 16:36:42.460,0.09,0.38,9.8
2025-06-18 16:36:42.479,0.09,0.39,9.8
2025-06-18 16:36:42.507,0.09,0.39,9.8
2025-06-18 16:36:42.525,0.08,0.39,9.79
2025-06-18 16:36:42.544,0.08,0.39,9.79
2025-06-18 16:36:42.581,0.08,0.38,9.79
2025-06-18 16:36:42.600,0.08,0.39,9.8
2025-06-18 16:36:42.628,0.08,0.39,9.8
2025-06-18 16:36:42.647,0.08,0.39,9.79
2025-06-18 16:36:42.684,0.08,0.39,9.8
2025-06-18 16:36:42.702,0.08,0.39,9.8
2025-06-18 16:36:42.721,0.08,0.38,9.79
2025-06-18 16:36:42.749,0.08,0.38,9.79
2025-06-18 16:36:42.767,0.08,0.38,9.8
2025-06-18 16:36:42.786,0.08,0.38,9.8
2025-06-18 16:36:42.805,0.08,0.39,9.79
2025-06-18 16:36:42.823,0.08,0.39,9.79
2025-06-18 16:36:42.842,0.08,0.39,9.8
2025-06-18 16:36:42.888,0.08,0.38,9.79
2025-06-18 16:36:42.907,0.08,0.38,9.79
2025-06-18 16:36:42.925,0.08,0.39,9.79
2025-06-18 16:36:42.944,0.08,0.39,9.79
2025-06-18 16:36:42.963,0.08,0.39,9.8
2025-06-18 16:36:42.981,0.08,0.39,9.8
2025-06-18 16:36:43.090,0.08,0.38,9.8
2025-06-18 16:36:43.280,0.08,0.38,9.8
2025-06-18 16:36:43.650,0.09,0.39,9.8
2025-06-18 16:36:43.830,0.08,0.38,9.8
2025-06-18 16:36:43.130,0.08,0.39,9.79
2025-06-18 16:36:43.149,0.08,0.39,9.79
2025-06-18 16:36:43.168,0.09,0.39,9.8
2025-06-18 16:36:43.186,0.08,0.38,9.8
2025-06-18 16:36:43.205,0.08,0.38,9.8
2025-06-18 16:36:43.223,0.08,0.39,9.8
2025-06-18 16:36:43.251,0.08,0.39,9.8
2025-06-18 16:36:43.270,0.08,0.38,9.79
2025-06-18 16:36:43.288,0.08,0.38,9.79
2025-06-18 16:36:43.307,0.09,0.39,9.79
2025-06-18 16:36:43.326,0.09,0.39,9.79
2025-06-18 16:36:43.344,0.08,0.39,9.79
2025-06-18 16:36:43.363,0.08,0.39,9.79
2025-06-18 16:36:43.391,0.08,0.38,9.79
2025-06-18 16:36:43.409,0.08,0.38,9.79
2025-06-18 16:36:43.428,0.08,0.38,9.8
2025-06-18 16:36:43.446,0.08,0.38,9.8
2025-06-18 16:36:43.465,0.08,0.39,9.79
2025-06-18 16:36:43.484,0.08,0.39,9.79
2025-06-18 16:36:43.511,0.09,0.39,9.8
2025-06-18 16:36:43.530,0.09,0.39,9.8
2025-06-18 16:36:43.549,0.09,0.39,9.79
2025-06-18 16:36:43.567,0.09,0.39,9.79
2025-06-18 16:36:43.605,0.08,0.39,9.79
2025-06-18 16:36:43.624,0.09,0.38,9.79
2025-06-18 16:36:43.671,0.09,0.39,9.79
2025-06-18 16:36:43.709,0.08,0.39,9.79
2025-06-18 16:36:43.727,0.09,0.39,9.79
2025-06-18 16:36:43.746,0.08,0.39,9.8
2025-06-18 16:36:43.774,0.08,0.39,9.8
2025-06-18 16:36:43.792,0.08,0.38,9.79
2025-06-18 16:36:43.811,0.08,0.38,9.79
2025-06-18 16:36:43.829,0.08,0.39,9.79
2025-06-18 16:36:43.848,0.08,0.39,9.79
2025-06-18 16:36:43.867,0.08,0.39,9.8
2025-06-18 16:36:43.895,0.08,0.39,9.8
2025-06-18 16:36:43.933,0.08,0.39,9.79
2025-06-18 16:36:43.951,0.08,0.39,9.8
2025-06-18 16:36:43.989,0.08,0.39,9.79
2025-06-18 16:36:44.080,0.08,0.39,9.79
2025-06-18 16:36:44.360,0.08,0.38,9.79
2025-06-18 16:36:44.540,0.08,0.39,9.79
2025-06-18 16:36:44.730,0.08,0.39,9.8
2025-06-18 16:36:44.910,0.08,0.39,9.8
2025-06-18 16:36:44.110,0.08,0.39,9.79
2025-06-18 16:36:44.156,0.09,0.38,9.79
2025-06-18 16:36:44.175,0.09,0.38,9.79
2025-06-18 16:36:44.194,0.08,0.39,9.79
2025-06-18 16:36:44.212,0.08,0.39,9.79
2025-06-18 16:36:44.250,0.09,0.38,9.79
2025-06-18 16:36:44.278,0.08,0.38,9.8
2025-06-18 16:36:44.315,0.08,0.39,9.8
2025-06-18 16:36:44.334,0.08,0.38,9.79
2025-06-18 16:36:44.352,0.08,0.39,9.8
2025-06-18 16:36:44.371,0.08,0.39,9.8
2025-06-18 16:36:44.399,0.08,0.39,9.8
2025-06-18 16:36:44.417,0.09,0.39,9.8
2025-06-18 16:36:44.436,0.09,0.39,9.8
2025-06-18 16:36:44.455,0.08,0.39,9.8
2025-06-18 16:36:44.473,0.08,0.39,9.8
2025-06-18 16:36:44.492,0.08,0.38,9.79
2025-06-18 16:36:44.538,0.08,0.39,9.79
2025-06-18 16:36:44.557,0.08,0.39,9.79
2025-06-18 16:36:44.575,0.08,0.39,9.8
2025-06-18 16:36:44.594,0.08,0.39,9.8
2025-06-18 16:36:44.613,0.08,0.38,9.79
2025-06-18 16:36:44.631,0.08,0.38,9.79
2025-06-18 16:36:44.659,0.09,0.38,9.8
2025-06-18 16:36:44.678,0.09,0.38,9.8
2025-06-18 16:36:44.696,0.09,0.38,9.79
2025-06-18 16:36:44.715,0.09,0.38,9.79
2025-06-18 16:36:44.752,0.08,0.39,9.79
2025-06-18 16:36:44.780,0.08,0.39,9.8
2025-06-18 16:36:44.817,0.08,0.38,9.8
2025-06-18 16:36:44.836,0.08,0.38,9.8
2025-06-18 16:36:44.854,0.09,0.38,9.8
2025-06-18 16:36:44.873,0.08,0.38,9.8
2025-06-18 16:36:44.901,0.08,0.39,9.79
2025-06-18 16:36:44.919,0.08,0.38,9.8
2025-06-18 16:36:44.938,0.08,0.38,9.79
2025-06-18 16:36:44.957,0.09,0.38,9.79
2025-06-18 16:36:44.994,0.08,0.39,9.79
2025-06-18 16:36:45.220,0.08,0.39,9.79
2025-06-18 16:36:45.400,0.08,0.38,9.8
2025-06-18 16:36:45.590,0.08,0.38,9.8
2025-06-18 16:36:45.960,0.09,0.39,9.79
2025-06-18 16:36:45.115,0.08,0.38,9.8
2025-06-18 16:36:45.162,0.08,0.39,9.79
2025-06-18 16:36:45.180,0.09,0.38,9.79
2025-06-18 16:36:45.199,0.08,0.39,9.79
2025-06-18 16:36:45.217,0.08,0.39,9.8
2025-06-18 16:36:45.236,0.09,0.38,9.8
2025-06-18 16:36:45.264,0.08,0.38,9.79
2025-06-18 16:36:45.283,0.08,0.39,9.79
2025-06-18 16:36:45.301,0.08,0.38,9.79
2025-06-18 16:36:45.320,0.08,0.39,9.79
2025-06-18 16:36:45.338,0.08,0.39,9.8
2025-06-18 16:36:45.357,0.09,0.39,9.79
2025-06-18 16:36:45.403,0.09,0.39,9.79
2025-06-18 16:36:45.422,0.08,0.39,9.79
2025-06-18 16:36:45.440,0.08,0.39,9.79
2025-06-18 16:36:45.459,0.08,0.38,9.8
2025-06-18 16:36:45.478,0.08,0.38,9.8
2025-06-18 16:36:45.496,0.08,0.39,9.8
2025-06-18 16:36:45.524,0.08,0.39,9.8
2025-06-18 16:36:45.543,0.09,0.38,9.79
2025-06-18 16:36:45.561,0.09,0.38,9.79
2025-06-18 16:36:45.580,0.08,0.39,9.79
2025-06-18 16:36:45.598,0.08,0.39,9.79
2025-06-18 16:36:45.637,0.08,0.39,9.79
2025-06-18 16:36:45.664,0.09,0.38,9.79
2025-06-18 16:36:45.702,0.09,0.39,9.79
2025-06-18 16:36:45.740,0.08,0.39,9.79
2025-06-18 16:36:45.759,0.09,0.39,9.79
2025-06-18 16:36:45.787,0.08,0.38,9.8
2025-06-18 16:36:45.805,0.09,0.39,9.8
2025-06-18 16:36:45.824,0.08,0.39,9.79
2025-06-18 16:36:45.842,0.08,0.38,9.8
2025-06-18 16:36:45.861,0.08,0.38,9.79
2025-06-18 16:36:45.880,0.08,0.38,9.79
2025-06-18 16:36:45.907,0.08,0.38,9.79
2025-06-18 16:36:45.926,0.08,0.38,9.79
2025-06-18 16:36:45.964,0.08,0.39,9.79
2025-06-18 16:36:45.983,0.08,0.39,9.79
2025-06-18 16:36:46.210,0.08,0.38,9.79
2025-06-18 16:36:46.490,0.08,0.39,9.79
2025-06-18 16:36:46.670,0.08,0.38,9.8
2025-06-18 16:36:46.860,0.09,0.39,9.8
2025-06-18 16:36:46.104,0.08,0.38,9.79
2025-06-18 16:36:46.123,0.08,0.39,9.8
2025-06-18 16:36:46.141,0.08,0.38,9.79
2025-06-18 16:36:46.188,0.09,0.39,9.79
2025-06-18 16:36:46.207,0.08,0.39,9.79
2025-06-18 16:36:46.225,0.08,0.38,9.8
2025-06-18 16:36:46.244,0.09,0.38,9.8
2025-06-18 16:36:46.262,0.09,0.39,9.79
2025-06-18 16:36:46.290,0.08,0.39,9.79
2025-06-18 16:36:46.327,0.08,0.39,9.79
2025-06-18 16:36:46.346,0.08,0.38,9.8
2025-06-18 16:36:46.365,0.08,0.38,9.8
2025-06-18 16:36:46.384,0.09,0.38,9.8
2025-06-18 16:36:46.411,0.08,0.39,9.79
2025-06-18 16:36:46.430,0.08,0.39,9.79
2025-06-18 16:36:46.468,0.08,0.38,9.79
2025-06-18 16:36:46.487,0.08,0.39,9.8
2025-06-18 16:36:46.505,0.09,0.39,9.79
2025-06-18 16:36:46.524,0.09,0.39,9.79
2025-06-18 16:36:46.552,0.08,0.38,9.8
2025-06-18 16:36:46.570,0.09,0.39,9.79
2025-06-18 16:36:46.589,0.09,0.38,9.79
2025-06-18 16:36:46.608,0.09,0.38,9.79
2025-06-18 16:36:46.626,0.09,0.38,9.8
2025-06-18 16:36:46.645,0.08,0.39,9.79
2025-06-18 16:36:46.691,0.08,0.39,9.8
2025-06-18 16:36:46.710,0.09,0.39,9.8
2025-06-18 16:36:46.728,0.09,0.38,9.8
2025-06-18 16:36:46.747,0.08,0.39,9.8
2025-06-18 16:36:46.766,0.08,0.39,9.79
2025-06-18 16:36:46.812,0.08,0.39,9.8
2025-06-18 16:36:46.831,0.09,0.38,9.79
2025-06-18 16:36:46.869,0.08,0.39,9.79
2025-06-18 16:36:46.887,0.09,0.38,9.79
2025-06-18 16:36:46.906,0.08,0.38,9.79
2025-06-18 16:36:46.934,0.08,0.39,9.79
2025-06-18 16:36:46.952,0.08,0.39,9.79
2025-06-18 16:36:46.971,0.08,0.38,9.79
2025-06-18 16:36:46.989,0.08,0.38,9.79
2025-06-18 16:36:47.270,0.08,0.38,9.79
2025-06-18 16:36:47.550,0.08,0.38,9.79
2025-06-18 16:36:47.730,0.08,0.39,9.79
2025-06-18 16:36:47.920,0.08,0.38,9.8
2025-06-18 16:36:47.110,0.09,0.38,9.8
2025-06-18 16:36:47.129,0.08,0.39,9.79
2025-06-18 16:36:47.175,0.09,0.38,9.79
2025-06-18 16:36:47.194,0.08,0.39,9.8
2025-06-18 16:36:47.213,0.07,0.39,9.8
2025-06-18 16:36:47.232,0.08,0.38,9.8
2025-06-18 16:36:47.250,0.09,0.38,9.79
2025-06-18 16:36:47.269,0.08,0.39,9.8
2025-06-18 16:36:47.315,0.08,0.38,9.79
2025-06-18 16:36:47.333,0.08,0.39,9.79
2025-06-18 16:36:47.352,0.08,0.39,9.79
2025-06-18 16:36:47.371,0.08,0.39,9.79
2025-06-18 16:36:47.389,0.08,0.38,9.8
2025-06-18 16:36:47.417,0.08,0.38,9.8
2025-06-18 16:36:47.436,0.09,0.38,9.79
2025-06-18 16:36:47.454,0.09,0.38,9.79
2025-06-18 16:36:47.473,0.08,0.38,9.8
2025-06-18 16:36:47.491,0.08,0.39,9.8
2025-06-18 16:36:47.510,0.09,0.38,9.79
2025-06-18 16:36:47.529,0.08,0.38,9.8
2025-06-18 16:36:47.556,0.09,0.38,9.8
2025-06-18 16:36:47.575,0.08,0.38,9.79
2025-06-18 16:36:47.594,0.09,0.39,9.79
2025-06-18 16:36:47.612,0.08,0.38,9.79
2025-06-18 16:36:47.650,0.09,0.38,9.8
2025-06-18 16:36:47.678,0.08,0.39,9.79
2025-06-18 16:36:47.715,0.08,0.39,9.8
2025-06-18 16:36:47.734,0.08,0.39,9.8
2025-06-18 16:36:47.752,0.09,0.39,9.8
2025-06-18 16:36:47.771,0.08,0.38,9.8
2025-06-18 16:36:47.799,0.08,0.38,9.8
2025-06-18 16:36:47.817,0.08,0.39,9.79
2025-06-18 16:36:47.836,0.08,0.39,9.79
2025-06-18 16:36:47.855,0.08,0.38,9.79
2025-06-18 16:36:47.873,0.08,0.38,9.79
2025-06-18 16:36:47.892,0.08,0.38,9.79
2025-06-18 16:36:47.938,0.09,0.38,9.79
2025-06-18 16:36:47.957,0.09,0.38,9.79
2025-06-18 16:36:47.975,0.08,0.39,9.8
2025-06-18 16:36:47.994,0.08,0.39,9.8
2025-06-18 16:36:48.130,0.08,0.39,9.8
2025-06-18 16:36:48.310,0.08,0.39,9.79
2025-06-18 16:36:48.590,0.08,0.38,9.79
2025-06-18 16:36:48.780,0.09,0.39,9.8
2025-06-18 16:36:48.960,0.09,0.38,9.8
2025-06-18 16:36:48.115,0.08,0.39,9.79
2025-06-18 16:36:48.152,0.08,0.39,9.79
2025-06-18 16:36:48.180,0.09,0.39,9.8
2025-06-18 16:36:48.217,0.08,0.39,9.8
2025-06-18 16:36:48.236,0.09,0.39,9.8
2025-06-18 16:36:48.254,0.08,0.38,9.8
2025-06-18 16:36:48.273,0.08,0.39,9.79
2025-06-18 16:36:48.301,0.08,0.39,9.79
2025-06-18 16:36:48.319,0.08,0.38,9.8
2025-06-18 16:36:48.338,0.08,0.38,9.8
2025-06-18 16:36:48.357,0.08,0.39,9.8
2025-06-18 16:36:48.375,0.08,0.39,9.8
2025-06-18 16:36:48.394,0.08,0.38,9.8
2025-06-18 16:36:48.440,0.08,0.39,9.79
2025-06-18 16:36:48.459,0.08,0.39,9.79
2025-06-18 16:36:48.477,0.08,0.38,9.8
2025-06-18 16:36:48.496,0.08,0.38,9.8
2025-06-18 16:36:48.515,0.08,0.39,9.79
2025-06-18 16:36:48.533,0.08,0.39,9.79
2025-06-18 16:36:48.561,0.08,0.38,9.79
2025-06-18 16:36:48.580,0.08,0.39,9.8
2025-06-18 16:36:48.598,0.08,0.39,9.79
2025-06-18 16:36:48.617,0.08,0.39,9.79
2025-06-18 16:36:48.654,0.08,0.38,9.79
2025-06-18 16:36:48.682,0.09,0.38,9.8
2025-06-18 16:36:48.719,0.08,0.38,9.8
2025-06-18 16:36:48.738,0.09,0.38,9.79
2025-06-18 16:36:48.756,0.08,0.38,9.79
2025-06-18 16:36:48.775,0.08,0.38,9.79
2025-06-18 16:36:48.803,0.08,0.39,9.79
2025-06-18 16:36:48.821,0.08,0.39,9.8
2025-06-18 16:36:48.840,0.08,0.38,9.79
2025-06-18 16:36:48.859,0.08,0.39,9.8
2025-06-18 16:36:48.896,0.09,0.39,9.8
2025-06-18 16:36:48.924,0.09,0.39,9.8
2025-06-18 16:36:48.942,0.08,0.38,9.79
2025-06-18 16:36:48.961,0.08,0.38,9.79
2025-06-18 16:36:48.998,0.09,0.38,9.79
2025-06-18 16:36:49.170,0.08,0.39,9.8
2025-06-18 16:36:49.640,0.08,0.38,9.79
2025-06-18 16:36:49.820,0.09,0.38,9.79
2025-06-18 16:36:49.101,0.08,0.39,9.79
2025-06-18 16:36:49.119,0.08,0.39,9.79
2025-06-18 16:36:49.138,0.08,0.39,9.79
2025-06-18 16:36:49.166,0.08,0.38,9.79
2025-06-18 16:36:49.185,0.08,0.38,9.79
2025-06-18 16:36:49.203,0.09,0.39,9.8
2025-06-18 16:36:49.222,0.09,0.39,9.8
2025-06-18 16:36:49.240,0.08,0.39,9.79
2025-06-18 16:36:49.259,0.08,0.39,9.79
2025-06-18 16:36:49.305,0.09,0.38,9.79
2025-06-18 16:36:49.324,0.08,0.38,9.79
2025-06-18 16:36:49.342,0.08,0.38,9.79
2025-06-18 16:36:49.361,0.08,0.39,9.8
2025-06-18 16:36:49.380,0.08,0.39,9.8
2025-06-18 16:36:49.398,0.08,0.39,9.79
2025-06-18 16:36:49.426,0.08,0.39,9.79
2025-06-18 16:36:49.445,0.09,0.39,9.8
2025-06-18 16:36:49.463,0.09,0.39,9.8
2025-06-18 16:36:49.500,0.08,0.39,9.79
2025-06-18 16:36:49.519,0.08,0.39,9.79
2025-06-18 16:36:49.566,0.08,0.38,9.79
2025-06-18 16:36:49.584,0.08,0.38,9.8
2025-06-18 16:36:49.603,0.09,0.39,9.79
2025-06-18 16:36:49.621,0.08,0.39,9.8
2025-06-18 16:36:49.640,0.08,0.39,9.8
2025-06-18 16:36:49.668,0.08,0.39,9.8
2025-06-18 16:36:49.687,0.08,0.39,9.8
2025-06-18 16:36:49.705,0.08,0.38,9.8
2025-06-18 16:36:49.724,0.08,0.38,9.8
2025-06-18 16:36:49.742,0.08,0.39,9.8
2025-06-18 16:36:49.761,0.08,0.39,9.8
2025-06-18 16:36:49.807,0.08,0.38,9.79
2025-06-18 16:36:49.826,0.09,0.38,9.79
2025-06-18 16:36:49.844,0.09,0.38,9.79
2025-06-18 16:36:49.863,0.08,0.39,9.8
2025-06-18 16:36:49.882,0.08,0.39,9.8
2025-06-18 16:36:49.900,0.09,0.39,9.79
2025-06-18 16:36:49.928,0.09,0.39,9.79
2025-06-18 16:36:49.947,0.08,0.38,9.8
2025-06-18 16:36:49.965,0.08,0.38,9.8
2025-06-18 16:36:49.984,0.08,0.39,9.8
2025-06-18 16:36:50.020,0.08,0.39,9.8
2025-06-18 16:36:50.410,0.08,0.38,9.8
2025-06-18 16:36:50.680,0.08,0.39,9.8
2025-06-18 16:36:50.880,0.08,0.39,9.79
2025-06-18 16:36:50.106,0.09,0.39,9.79
2025-06-18 16:36:50.125,0.08,0.39,9.79
2025-06-18 16:36:50.143,0.09,0.38,9.79
2025-06-18 16:36:50.190,0.08,0.39,9.8
2025-06-18 16:36:50.208,0.09,0.39,9.79
2025-06-18 16:36:50.227,0.08,0.38,9.79
2025-06-18 16:36:50.245,0.08,0.38,9.79
2025-06-18 16:36:50.264,0.08,0.38,9.8
2025-06-18 16:36:50.283,0.08,0.38,9.8
2025-06-18 16:36:50.311,0.08,0.39,9.79
2025-06-18 16:36:50.329,0.08,0.39,9.79
2025-06-18 16:36:50.348,0.08,0.38,9.8
2025-06-18 16:36:50.366,0.08,0.38,9.8
2025-06-18 16:36:50.385,0.08,0.39,9.79
2025-06-18 16:36:50.403,0.08,0.39,9.79
2025-06-18 16:36:50.422,0.08,0.38,9.79
2025-06-18 16:36:50.450,0.08,0.38,9.79
2025-06-18 16:36:50.469,0.08,0.39,9.8
2025-06-18 16:36:50.487,0.08,0.39,9.8
2025-06-18 16:36:50.524,0.09,0.39,9.79
2025-06-18 16:36:50.543,0.08,0.39,9.8
2025-06-18 16:36:50.590,0.08,0.39,9.79
2025-06-18 16:36:50.608,0.09,0.38,9.79
2025-06-18 16:36:50.627,0.08,0.38,9.8
2025-06-18 16:36:50.645,0.08,0.39,9.79
2025-06-18 16:36:50.664,0.08,0.39,9.79
2025-06-18 16:36:50.692,0.09,0.39,9.79
2025-06-18 16:36:50.711,0.09,0.39,9.79
2025-06-18 16:36:50.729,0.08,0.38,9.79
2025-06-18 16:36:50.748,0.08,0.38,9.79
2025-06-18 16:36:50.766,0.08,0.38,9.8
2025-06-18 16:36:50.785,0.08,0.38,9.8
2025-06-18 16:36:50.831,0.09,0.39,9.8
2025-06-18 16:36:50.850,0.08,0.39,9.8
2025-06-18 16:36:50.868,0.08,0.39,9.8
2025-06-18 16:36:50.887,0.08,0.39,9.79
2025-06-18 16:36:50.906,0.08,0.39,9.79
2025-06-18 16:36:50.924,0.08,0.39,9.8
2025-06-18 16:36:50.952,0.08,0.39,9.8
2025-06-18 16:36:50.971,0.08,0.38,9.8
2025-06-18 16:36:50.989,0.08,0.38,9.8
2025-06-18 16:36:51.260,0.09,0.39,9.79
2025-06-18 16:36:51.450,0.09,0.39,9.8
2025-06-18 16:36:51.920,0.08,0.38,9.8
2025-06-18 16:36:51.110,0.08,0.39,9.8
2025-06-18 16:36:51.129,0.08,0.39,9.79
2025-06-18 16:36:51.147,0.09,0.38,9.8
2025-06-18 16:36:51.166,0.09,0.38,9.8
2025-06-18 16:36:51.194,0.08,0.39,9.8
2025-06-18 16:36:51.213,0.08,0.39,9.8
2025-06-18 16:36:51.231,0.08,0.38,9.79
2025-06-18 16:36:51.250,0.08,0.38,9.79
2025-06-18 16:36:51.268,0.08,0.38,9.8
2025-06-18 16:36:51.287,0.08,0.38,9.8
2025-06-18 16:36:51.333,0.08,0.39,9.8
2025-06-18 16:36:51.352,0.08,0.38,9.8
2025-06-18 16:36:51.370,0.08,0.38,9.8
2025-06-18 16:36:51.389,0.09,0.39,9.79
2025-06-18 16:36:51.408,0.09,0.39,9.79
2025-06-18 16:36:51.426,0.08,0.39,9.79
2025-06-18 16:36:51.454,0.08,0.39,9.79
2025-06-18 16:36:51.473,0.08,0.38,9.79
2025-06-18 16:36:51.491,0.08,0.38,9.79
2025-06-18 16:36:51.528,0.08,0.39,9.8
2025-06-18 16:36:51.547,0.09,0.39,9.79
2025-06-18 16:36:51.594,0.08,0.38,9.8
2025-06-18 16:36:51.612,0.08,0.39,9.8
2025-06-18 16:36:51.631,0.09,0.39,9.8
2025-06-18 16:36:51.649,0.08,0.38,9.8
2025-06-18 16:36:51.668,0.08,0.38,9.8
2025-06-18 16:36:51.696,0.08,0.39,9.79
2025-06-18 16:36:51.715,0.08,0.39,9.79
2025-06-18 16:36:51.733,0.08,0.38,9.8
2025-06-18 16:36:51.752,0.08,0.38,9.8
2025-06-18 16:36:51.770,0.09,0.39,9.8
2025-06-18 16:36:51.789,0.09,0.39,9.8
2025-06-18 16:36:51.835,0.08,0.38,9.8
2025-06-18 16:36:51.854,0.09,0.39,9.8
2025-06-18 16:36:51.872,0.09,0.39,9.8
2025-06-18 16:36:51.891,0.08,0.39,9.79
2025-06-18 16:36:51.910,0.08,0.39,9.79
2025-06-18 16:36:51.928,0.08,0.38,9.8
2025-06-18 16:36:51.956,0.08,0.38,9.8
2025-06-18 16:36:51.975,0.08,0.39,9.8
2025-06-18 16:36:51.993,0.08,0.39,9.8
2025-06-18 16:36:52.300,0.08,0.39,9.8
2025-06-18 16:36:52.490,0.08,0.38,9.79
2025-06-18 16:36:52.960,0.09,0.38,9.8
2025-06-18 16:36:52.114,0.08,0.39,9.8
2025-06-18 16:36:52.133,0.08,0.38,9.79
2025-06-18 16:36:52.151,0.08,0.39,9.79
2025-06-18 16:36:52.170,0.08,0.39,9.79
2025-06-18 16:36:52.198,0.08,0.39,9.8
2025-06-18 16:36:52.217,0.08,0.38,9.79
2025-06-18 16:36:52.235,0.08,0.39,9.8
2025-06-18 16:36:52.272,0.08,0.39,9.8
2025-06-18 16:36:52.291,0.08,0.39,9.8
2025-06-18 16:36:52.319,0.08,0.38,9.8
2025-06-18 16:36:52.337,0.08,0.38,9.8
2025-06-18 16:36:52.375,0.09,0.39,9.79
2025-06-18 16:36:52.393,0.08,0.38,9.79
2025-06-18 16:36:52.440,0.08,0.39,9.79
2025-06-18 16:36:52.459,0.08,0.38,9.8
2025-06-18 16:36:52.478,0.09,0.38,9.79
2025-06-18 16:36:52.496,0.09,0.38,9.79
2025-06-18 16:36:52.515,0.09,0.38,9.79
2025-06-18 16:36:52.533,0.08,0.39,9.79
2025-06-18 16:36:52.561,0.08,0.39,9.79
2025-06-18 16:36:52.580,0.08,0.39,9.8
2025-06-18 16:36:52.598,0.08,0.39,9.8
2025-06-18 16:36:52.617,0.08,0.39,9.79
2025-06-18 16:36:52.636,0.08,0.39,9.79
2025-06-18 16:36:52.654,0.08,0.39,9.79
2025-06-18 16:36:52.673,0.08,0.39,9.79
2025-06-18 16:36:52.701,0.08,0.39,9.8
2025-06-18 16:36:52.719,0.08,0.39,9.8
2025-06-18 16:36:52.738,0.08,0.38,9.8
2025-06-18 16:36:52.756,0.08,0.38,9.8
2025-06-18 16:36:52.775,0.09,0.38,9.8
2025-06-18 16:36:52.794,0.09,0.38,9.8
2025-06-18 16:36:52.821,0.09,0.39,9.8
2025-06-18 16:36:52.840,0.09,0.39,9.8
2025-06-18 16:36:52.878,0.08,0.38,9.8
2025-06-18 16:36:52.897,0.08,0.39,9.79
2025-06-18 16:36:52.935,0.08,0.38,9.8
2025-06-18 16:36:52.963,0.09,0.38,9.79
2025-06-18 16:36:52.981,0.09,0.39,9.79
2025-06-18 16:36:53.000,0.08,0.38,9.79
2025-06-18 16:36:53.180,0.09,0.39,9.8
2025-06-18 16:36:53.370,0.08,0.39,9.79
2025-06-18 16:36:53.550,0.08,0.38,9.8
2025-06-18 16:36:53.830,0.08,0.39,9.79
2025-06-18 16:36:53.121,0.08,0.38,9.79
2025-06-18 16:36:53.139,0.08,0.38,9.79
2025-06-18 16:36:53.158,0.08,0.38,9.79
2025-06-18 16:36:53.176,0.08,0.38,9.79
2025-06-18 16:36:53.223,0.09,0.38,9.79
2025-06-18 16:36:53.241,0.08,0.38,9.79
2025-06-18 16:36:53.279,0.08,0.39,9.8
2025-06-18 16:36:53.298,0.08,0.38,9.8
2025-06-18 16:36:53.326,0.08,0.38,9.8
2025-06-18 16:36:53.344,0.08,0.38,9.8
2025-06-18 16:36:53.363,0.08,0.38,9.8
2025-06-18 16:36:53.381,0.09,0.39,9.79
2025-06-18 16:36:53.400,0.09,0.39,9.79
2025-06-18 16:36:53.419,0.08,0.39,9.79
2025-06-18 16:36:53.446,0.08,0.39,9.79
2025-06-18 16:36:53.465,0.08,0.38,9.79
2025-06-18 16:36:53.484,0.08,0.38,9.79
2025-06-18 16:36:53.502,0.08,0.38,9.79
2025-06-18 16:36:53.521,0.08,0.38,9.79
2025-06-18 16:36:53.539,0.08,0.39,9.79
2025-06-18 16:36:53.558,0.08,0.39,9.79
2025-06-18 16:36:53.586,0.08,0.38,9.8
2025-06-18 16:36:53.604,0.08,0.38,9.8
2025-06-18 16:36:53.623,0.09,0.39,9.8
2025-06-18 16:36:53.642,0.09,0.39,9.8
2025-06-18 16:36:53.660,0.08,0.38,9.79
2025-06-18 16:36:53.679,0.08,0.38,9.79
2025-06-18 16:36:53.725,0.09,0.39,9.79
2025-06-18 16:36:53.743,0.09,0.39,9.79
2025-06-18 16:36:53.781,0.08,0.39,9.8
2025-06-18 16:36:53.800,0.09,0.39,9.79
2025-06-18 16:36:53.828,0.08,0.38,9.79
2025-06-18 16:36:53.846,0.08,0.39,9.79
2025-06-18 16:36:53.865,0.08,0.39,9.8
2025-06-18 16:36:53.883,0.08,0.39,9.79
2025-06-18 16:36:53.902,0.08,0.38,9.79
2025-06-18 16:36:53.921,0.08,0.38,9.8
2025-06-18 16:36:53.967,0.09,0.39,9.79
2025-06-18 16:36:53.986,0.09,0.39,9.79
2025-06-18 16:36:54.040,0.08,0.39,9.8
2025-06-18 16:36:54.230,0.08,0.39,9.8
2025-06-18 16:36:54.690,0.08,0.39,9.8
2025-06-18 16:36:54.880,0.08,0.38,9.8
2025-06-18 16:36:54.126,0.08,0.38,9.79
2025-06-18 16:36:54.144,0.08,0.39,9.8
2025-06-18 16:36:54.163,0.09,0.38,9.8
2025-06-18 16:36:54.191,0.09,0.39,9.8
2025-06-18 16:36:54.209,0.09,0.39,9.79
2025-06-18 16:36:54.228,0.09,0.39,9.8
2025-06-18 16:36:54.246,0.08,0.39,9.8
2025-06-18 16:36:54.265,0.08,0.39,9.8
2025-06-18 16:36:54.312,0.09,0.39,9.79
2025-06-18 16:36:54.330,0.09,0.39,9.79
2025-06-18 16:36:54.349,0.08,0.38,9.8
2025-06-18 16:36:54.367,0.08,0.38,9.8
2025-06-18 16:36:54.405,0.08,0.38,9.79
2025-06-18 16:36:54.433,0.08,0.38,9.79
2025-06-18 16:36:54.470,0.08,0.39,9.79
2025-06-18 16:36:54.489,0.09,0.38,9.79
2025-06-18 16:36:54.507,0.09,0.38,9.8
2025-06-18 16:36:54.526,0.08,0.38,9.79
2025-06-18 16:36:54.554,0.08,0.38,9.79
2025-06-18 16:36:54.572,0.08,0.38,9.8
2025-06-18 16:36:54.591,0.08,0.38,9.8
2025-06-18 16:36:54.610,0.09,0.38,9.8
2025-06-18 16:36:54.628,0.09,0.38,9.8
2025-06-18 16:36:54.647,0.08,0.38,9.79
2025-06-18 16:36:54.693,0.08,0.38,9.79
2025-06-18 16:36:54.712,0.08,0.38,9.79
2025-06-18 16:36:54.730,0.08,0.38,9.79
2025-06-18 16:36:54.749,0.08,0.38,9.79
2025-06-18 16:36:54.768,0.09,0.38,9.79
2025-06-18 16:36:54.786,0.09,0.38,9.79
2025-06-18 16:36:54.814,0.09,0.38,9.8
2025-06-18 16:36:54.833,0.09,0.38,9.8
2025-06-18 16:36:54.851,0.08,0.38,9.8
2025-06-18 16:36:54.870,0.08,0.38,9.8
2025-06-18 16:36:54.907,0.08,0.39,9.79
2025-06-18 16:36:54.935,0.08,0.38,9.8
2025-06-18 16:36:54.972,0.09,0.39,9.8
2025-06-18 16:36:54.991,0.08,0.38,9.79
2025-06-18 16:36:55.090,0.08,0.39,9.79
2025-06-18 16:36:55.280,0.09,0.38,9.8
2025-06-18 16:36:55.560,0.08,0.38,9.79
2025-06-18 16:36:55.740,0.09,0.39,9.8
2025-06-18 16:36:55.930,0.08,0.39,9.79
2025-06-18 16:36:55.112,0.08,0.39,9.79
2025-06-18 16:36:55.149,0.08,0.38,9.79
2025-06-18 16:36:55.177,0.08,0.38,9.79
2025-06-18 16:36:55.195,0.08,0.39,9.79
2025-06-18 16:36:55.214,0.08,0.39,9.79
2025-06-18 16:36:55.251,0.08,0.38,9.8
2025-06-18 16:36:55.270,0.08,0.38,9.79
2025-06-18 16:36:55.317,0.08,0.39,9.8
2025-06-18 16:36:55.335,0.08,0.38,9.79
2025-06-18 16:36:55.354,0.08,0.39,9.79
2025-06-18 16:36:55.372,0.08,0.39,9.79
2025-06-18 16:36:55.391,0.08,0.39,9.79
2025-06-18 16:36:55.419,0.09,0.39,9.79
2025-06-18 16:36:55.438,0.09,0.39,9.79
2025-06-18 16:36:55.456,0.08,0.39,9.8
2025-06-18 16:36:55.475,0.08,0.39,9.8
2025-06-18 16:36:55.493,0.08,0.38,9.79
2025-06-18 16:36:55.512,0.08,0.38,9.79
2025-06-18 16:36:55.559,0.09,0.38,9.8
2025-06-18 16:36:55.578,0.09,0.38,9.8
2025-06-18 16:36:55.616,0.08,0.39,9.79
2025-06-18 16:36:55.634,0.08,0.39,9.8
2025-06-18 16:36:55.681,0.08,0.39,9.79
2025-06-18 16:36:55.719,0.09,0.38,9.79
2025-06-18 16:36:55.738,0.09,0.38,9.8
2025-06-18 16:36:55.756,0.09,0.39,9.79
2025-06-18 16:36:55.775,0.08,0.38,9.79
2025-06-18 16:36:55.803,0.09,0.38,9.79
2025-06-18 16:36:55.821,0.09,0.39,9.8
2025-06-18 16:36:55.840,0.09,0.38,9.79
2025-06-18 16:36:55.859,0.08,0.38,9.8
2025-06-18 16:36:55.877,0.08,0.38,9.8
2025-06-18 16:36:55.896,0.08,0.38,9.8
2025-06-18 16:36:55.942,0.09,0.39,9.79
2025-06-18 16:36:55.960,0.08,0.38,9.8
2025-06-18 16:36:55.998,0.08,0.39,9.8
2025-06-18 16:36:56.170,0.09,0.39,9.8
2025-06-18 16:36:56.450,0.09,0.38,9.8
2025-06-18 16:36:56.630,0.08,0.39,9.79
2025-06-18 16:36:56.820,0.09,0.39,9.79
2025-06-18 16:36:56.100,0.08,0.39,9.8
2025-06-18 16:36:56.119,0.09,0.39,9.8
2025-06-18 16:36:56.165,0.09,0.39,9.8
2025-06-18 16:36:56.184,0.09,0.39,9.8
2025-06-18 16:36:56.203,0.08,0.39,9.8
2025-06-18 16:36:56.221,0.08,0.38,9.8
2025-06-18 16:36:56.259,0.08,0.38,9.8
2025-06-18 16:36:56.287,0.08,0.39,9.79
2025-06-18 16:36:56.324,0.08,0.38,9.8
2025-06-18 16:36:56.343,0.08,0.38,9.79
2025-06-18 16:36:56.361,0.09,0.39,9.8
2025-06-18 16:36:56.380,0.09,0.38,9.8
2025-06-18 16:36:56.408,0.09,0.38,9.8
2025-06-18 16:36:56.426,0.08,0.38,9.79
2025-06-18 16:36:56.445,0.09,0.39,9.79
2025-06-18 16:36:56.464,0.08,0.38,9.8
2025-06-18 16:36:56.501,0.08,0.39,9.8
2025-06-18 16:36:56.529,0.09,0.39,9.8
2025-06-18 16:36:56.547,0.09,0.38,9.79
2025-06-18 16:36:56.566,0.09,0.38,9.8
2025-06-18 16:36:56.603,0.08,0.38,9.8
2025-06-18 16:36:56.622,0.08,0.39,9.79
2025-06-18 16:36:56.669,0.09,0.38,9.79
2025-06-18 16:36:56.687,0.09,0.39,9.8
2025-06-18 16:36:56.706,0.08,0.39,9.79
2025-06-18 16:36:56.724,0.08,0.39,9.8
2025-06-18 16:36:56.743,0.08,0.39,9.8
2025-06-18 16:36:56.771,0.09,0.38,9.8
2025-06-18 16:36:56.790,0.09,0.38,9.8
2025-06-18 16:36:56.808,0.08,0.38,9.79
2025-06-18 16:36:56.827,0.08,0.38,9.79
2025-06-18 16:36:56.845,0.09,0.39,9.8
2025-06-18 16:36:56.864,0.09,0.39,9.8
2025-06-18 16:36:56.910,0.09,0.38,9.79
2025-06-18 16:36:56.929,0.08,0.39,9.79
2025-06-18 16:36:56.947,0.08,0.39,9.79
2025-06-18 16:36:56.966,0.09,0.38,9.8
2025-06-18 16:36:56.985,0.08,0.39,9.79
2025-06-18 16:36:57.030,0.09,0.39,9.8
2025-06-18 16:36:57.310,0.08,0.39,9.79
2025-06-18 16:36:57.500,0.08,0.39,9.79
2025-06-18 16:36:57.680,0.08,0.39,9.8
2025-06-18 16:36:57.105,0.09,0.39,9.79
2025-06-18 16:36:57.124,0.08,0.39,9.8
2025-06-18 16:36:57.171,0.09,0.38,9.79
2025-06-18 16:36:57.189,0.09,0.39,9.79
2025-06-18 16:36:57.208,0.09,0.39,9.79
2025-06-18 16:36:57.226,0.07,0.39,9.79
2025-06-18 16:36:57.245,0.08,0.38,9.79
2025-06-18 16:36:57.273,0.08,0.38,9.79
2025-06-18 16:36:57.292,0.08,0.38,9.79
2025-06-18 16:36:57.310,0.09,0.39,9.79
2025-06-18 16:36:57.347,0.08,0.39,9.79
2025-06-18 16:36:57.366,0.08,0.39,9.79
2025-06-18 16:36:57.394,0.08,0.38,9.79
2025-06-18 16:36:57.412,0.08,0.38,9.79
2025-06-18 16:36:57.450,0.08,0.38,9.79
2025-06-18 16:36:57.468,0.09,0.38,9.79
2025-06-18 16:36:57.515,0.08,0.39,9.79
2025-06-18 16:36:57.534,0.08,0.39,9.8
2025-06-18 16:36:57.553,0.09,0.39,9.79
2025-06-18 16:36:57.571,0.09,0.38,9.79
2025-06-18 16:36:57.590,0.08,0.38,9.79
2025-06-18 16:36:57.608,0.08,0.38,9.79
2025-06-18 16:36:57.636,0.08,0.39,9.79
2025-06-18 16:36:57.655,0.09,0.38,9.8
2025-06-18 16:36:57.692,0.08,0.39,9.8
2025-06-18 16:36:57.711,0.08,0.39,9.8
2025-06-18 16:36:57.729,0.09,0.38,9.79
2025-06-18 16:36:57.757,0.09,0.38,9.79
2025-06-18 16:36:57.794,0.08,0.39,9.79
2025-06-18 16:36:57.813,0.09,0.38,9.8
2025-06-18 16:36:57.851,0.08,0.39,9.8
2025-06-18 16:36:57.879,0.08,0.39,9.79
2025-06-18 16:36:57.897,0.08,0.39,9.79
2025-06-18 16:36:57.916,0.08,0.39,9.8
2025-06-18 16:36:57.934,0.08,0.39,9.8
2025-06-18 16:36:57.953,0.08,0.39,9.79
2025-06-18 16:36:57.971,0.08,0.39,9.79
2025-06-18 16:36:57.999,0.08,0.39,9.79
2025-06-18 16:36:58.180,0.08,0.39,9.79
2025-06-18 16:36:58.370,0.08,0.38,9.79
2025-06-18 16:36:58.550,0.08,0.38,9.79
2025-06-18 16:36:58.740,0.08,0.39,9.79
2025-06-18 16:36:58.920,0.08,0.39,9.79
2025-06-18 16:36:58.111,0.08,0.38,9.8
2025-06-18 16:36:58.139,0.08,0.38,9.8
2025-06-18 16:36:58.157,0.08,0.39,9.79
2025-06-18 16:36:58.176,0.08,0.39,9.79
2025-06-18 16:36:58.194,0.08,0.38,9.79
2025-06-18 16:36:58.213,0.08,0.38,9.79
2025-06-18 16:36:58.232,0.08,0.38,9.79
2025-06-18 16:36:58.260,0.08,0.38,9.79
2025-06-18 16:36:58.298,0.08,0.39,9.79
2025-06-18 16:36:58.316,0.08,0.39,9.79
2025-06-18 16:36:58.354,0.08,0.38,9.8
2025-06-18 16:36:58.373,0.08,0.39,9.8
2025-06-18 16:36:58.401,0.09,0.38,9.79
2025-06-18 16:36:58.419,0.09,0.39,9.8
2025-06-18 16:36:58.438,0.09,0.39,9.8
2025-06-18 16:36:58.456,0.08,0.38,9.8
2025-06-18 16:36:58.475,0.08,0.38,9.8
2025-06-18 16:36:58.494,0.08,0.39,9.8
2025-06-18 16:36:58.521,0.08,0.39,9.8
2025-06-18 16:36:58.540,0.08,0.38,9.8
2025-06-18 16:36:58.559,0.08,0.38,9.8
2025-06-18 16:36:58.577,0.08,0.39,9.79
2025-06-18 16:36:58.596,0.08,0.39,9.79
2025-06-18 16:36:58.614,0.08,0.39,9.79
2025-06-18 16:36:58.633,0.08,0.39,9.79
2025-06-18 16:36:58.661,0.08,0.38,9.79
2025-06-18 16:36:58.679,0.08,0.38,9.79
2025-06-18 16:36:58.698,0.08,0.38,9.79
2025-06-18 16:36:58.717,0.08,0.38,9.79
2025-06-18 16:36:58.735,0.09,0.39,9.79
2025-06-18 16:36:58.754,0.09,0.39,9.79
2025-06-18 16:36:58.800,0.09,0.38,9.8
2025-06-18 16:36:58.818,0.09,0.39,9.79
2025-06-18 16:36:58.856,0.08,0.39,9.79
2025-06-18 16:36:58.875,0.09,0.38,9.79
2025-06-18 16:36:58.903,0.09,0.38,9.79
2025-06-18 16:36:58.921,0.08,0.38,9.79
2025-06-18 16:36:58.940,0.08,0.38,9.79
2025-06-18 16:36:58.958,0.08,0.39,9.8
2025-06-18 16:36:58.977,0.08,0.38,9.8
2025-06-18 16:36:58.996,0.09,0.38,9.8
2025-06-18 16:36:59.420,0.08,0.38,9.8
2025-06-18 16:36:59.610,0.08,0.38,9.8
2025-06-18 16:36:59.790,0.08,0.39,9.79
2025-06-18 16:36:59.980,0.08,0.39,9.79
2025-06-18 16:36:59.144,0.08,0.38,9.79
2025-06-18 16:36:59.163,0.08,0.38,9.79
2025-06-18 16:36:59.201,0.08,0.39,9.8
2025-06-18 16:36:59.219,0.09,0.39,9.79
2025-06-18 16:36:59.238,0.08,0.38,9.79
2025-06-18 16:36:59.266,0.08,0.38,9.8
2025-06-18 16:36:59.284,0.08,0.38,9.8
2025-06-18 16:36:59.303,0.09,0.38,9.79
2025-06-18 16:36:59.321,0.09,0.38,9.79
2025-06-18 16:36:59.340,0.08,0.38,9.79
2025-06-18 16:36:59.359,0.08,0.38,9.79
2025-06-18 16:36:59.387,0.09,0.39,9.79
2025-06-18 16:36:59.405,0.09,0.39,9.79
2025-06-18 16:36:59.424,0.08,0.39,9.8
2025-06-18 16:36:59.442,0.08,0.39,9.8
2025-06-18 16:36:59.461,0.08,0.38,9.8
2025-06-18 16:36:59.479,0.08,0.38,9.8
2025-06-18 16:36:59.498,0.08,0.38,9.79
2025-06-18 16:36:59.526,0.08,0.38,9.79
2025-06-18 16:36:59.545,0.08,0.38,9.8
2025-06-18 16:36:59.563,0.08,0.38,9.8
2025-06-18 16:36:59.582,0.08,0.39,9.79
2025-06-18 16:36:59.600,0.08,0.39,9.79
2025-06-18 16:36:59.647,0.09,0.39,9.79
2025-06-18 16:36:59.665,0.08,0.38,9.8
2025-06-18 16:36:59.703,0.08,0.38,9.79
2025-06-18 16:36:59.721,0.08,0.38,9.79
2025-06-18 16:36:59.740,0.09,0.38,9.79
2025-06-18 16:36:59.768,0.09,0.39,9.8
2025-06-18 16:36:59.786,0.08,0.39,9.79
2025-06-18 16:36:59.805,0.08,0.38,9.79
2025-06-18 16:36:59.823,0.08,0.38,9.8
2025-06-18 16:36:59.842,0.08,0.39,9.79
2025-06-18 16:36:59.889,0.08,0.39,9.79
2025-06-18 16:36:59.907,0.08,0.39,9.79
2025-06-18 16:36:59.926,0.09,0.39,9.8
2025-06-18 16:36:59.944,0.09,0.39,9.8
2025-06-18 16:36:59.982,0.08,0.38,9.8
2025-06-18 16:37:00.100,0.08,0.38,9.79
2025-06-18 16:37:00.470,0.08,0.38,9.8
2025-06-18 16:37:00.660,0.09,0.39,9.8
2025-06-18 16:37:00.840,0.08,0.39,9.8
2025-06-18 16:37:00.103,0.08,0.38,9.79
2025-06-18 16:37:00.131,0.09,0.39,9.8
2025-06-18 16:37:00.149,0.08,0.39,9.8
2025-06-18 16:37:00.168,0.09,0.38,9.79
2025-06-18 16:37:00.187,0.08,0.39,9.79
2025-06-18 16:37:00.224,0.08,0.39,9.8
2025-06-18 16:37:00.252,0.08,0.39,9.8
2025-06-18 16:37:00.270,0.08,0.39,9.79
2025-06-18 16:37:00.289,0.08,0.39,9.79
2025-06-18 16:37:00.326,0.08,0.39,9.79
2025-06-18 16:37:00.345,0.08,0.38,9.8
2025-06-18 16:37:00.392,0.08,0.39,9.79
2025-06-18 16:37:00.410,0.09,0.39,9.79
2025-06-18 16:37:00.429,0.08,0.39,9.8
2025-06-18 16:37:00.447,0.08,0.38,9.79
2025-06-18 16:37:00.466,0.09,0.39,9.79
2025-06-18 16:37:00.494,0.08,0.38,9.8
2025-06-18 16:37:00.513,0.08,0.39,9.8
2025-06-18 16:37:00.531,0.08,0.38,9.8
2025-06-18 16:37:00.568,0.08,0.38,9.79
2025-06-18 16:37:00.587,0.08,0.38,9.79
2025-06-18 16:37:00.615,0.09,0.38,9.8
2025-06-18 16:37:00.633,0.09,0.38,9.8
2025-06-18 16:37:00.671,0.08,0.39,9.79
2025-06-18 16:37:00.689,0.08,0.38,9.79
2025-06-18 16:37:00.736,0.08,0.39,9.79
2025-06-18 16:37:00.755,0.08,0.38,9.79
2025-06-18 16:37:00.774,0.08,0.38,9.79
2025-06-18 16:37:00.792,0.08,0.39,9.79
2025-06-18 16:37:00.811,0.08,0.38,9.79
2025-06-18 16:37:00.829,0.08,0.39,9.79
2025-06-18 16:37:00.857,0.08,0.39,9.8
2025-06-18 16:37:00.876,0.09,0.39,9.8
2025-06-18 16:37:00.913,0.08,0.39,9.79
2025-06-18 16:37:00.932,0.08,0.39,9.79
2025-06-18 16:37:00.950,0.08,0.38,9.8
2025-06-18 16:37:00.978,0.08,0.38,9.8
2025-06-18 16:37:01.150,0.08,0.38,9.8
2025-06-18 16:37:01.340,0.08,0.39,9.79
2025-06-18 16:37:01.720,0.08,0.38,9.79
2025-06-18 16:37:01.100,0.09,0.39,9.79
2025-06-18 16:37:01.118,0.08,0.38,9.8
2025-06-18 16:37:01.137,0.08,0.38,9.79
2025-06-18 16:37:01.155,0.08,0.39,9.8
2025-06-18 16:37:01.174,0.08,0.39,9.79
2025-06-18 16:37:01.192,0.08,0.39,9.79
2025-06-18 16:37:01.220,0.09,0.38,9.8
2025-06-18 16:37:01.258,0.09,0.38,9.79
2025-06-18 16:37:01.276,0.09,0.38,9.79
2025-06-18 16:37:01.295,0.09,0.39,9.79
2025-06-18 16:37:01.313,0.09,0.39,9.79
2025-06-18 16:37:01.360,0.08,0.38,9.8
2025-06-18 16:37:01.378,0.08,0.38,9.79
2025-06-18 16:37:01.416,0.08,0.38,9.79
2025-06-18 16:37:01.435,0.08,0.39,9.8
2025-06-18 16:37:01.463,0.08,0.39,9.8
2025-06-18 16:37:01.481,0.08,0.39,9.79
2025-06-18 16:37:01.500,0.08,0.39,9.79
2025-06-18 16:37:01.518,0.08,0.38,9.79
2025-06-18 16:37:01.537,0.08,0.38,9.79
2025-06-18 16:37:01.556,0.08,0.39,9.79
2025-06-18 16:37:01.602,0.08,0.39,9.8
2025-06-18 16:37:01.621,0.08,0.39,9.79
2025-06-18 16:37:01.639,0.08,0.38,9.79
2025-06-18 16:37:01.658,0.09,0.39,9.79
2025-06-18 16:37:01.704,0.08,0.39,9.79
2025-06-18 16:37:01.723,0.08,0.38,9.79
2025-06-18 16:37:01.761,0.09,0.39,9.8
2025-06-18 16:37:01.779,0.09,0.39,9.8
2025-06-18 16:37:01.798,0.08,0.38,9.79
2025-06-18 16:37:01.826,0.08,0.39,9.8
2025-06-18 16:37:01.844,0.08,0.38,9.8
2025-06-18 16:37:01.863,0.08,0.39,9.79
2025-06-18 16:37:01.881,0.09,0.39,9.79
2025-06-18 16:37:01.900,0.08,0.38,9.79
2025-06-18 16:37:01.947,0.08,0.39,9.79
2025-06-18 16:37:01.965,0.09,0.39,9.79
2025-06-18 16:37:01.984,0.08,0.38,9.8
2025-06-18 16:37:02.020,0.08,0.38,9.79
2025-06-18 16:37:02.400,0.09,0.38,9.8
2025-06-18 16:37:02.680,0.08,0.38,9.79
2025-06-18 16:37:02.105,0.08,0.38,9.8
2025-06-18 16:37:02.124,0.08,0.39,9.79
2025-06-18 16:37:02.142,0.08,0.39,9.79
2025-06-18 16:37:02.161,0.08,0.38,9.79
2025-06-18 16:37:02.189,0.08,0.38,9.79
2025-06-18 16:37:02.207,0.08,0.38,9.79
2025-06-18 16:37:02.226,0.08,0.39,9.8
2025-06-18 16:37:02.245,0.08,0.39,9.8
2025-06-18 16:37:02.282,0.08,0.38,9.79
2025-06-18 16:37:02.310,0.08,0.38,9.8
2025-06-18 16:37:02.328,0.09,0.39,9.79
2025-06-18 16:37:02.347,0.08,0.39,9.8
2025-06-18 16:37:02.384,0.08,0.38,9.79
2025-06-18 16:37:02.403,0.08,0.38,9.8
2025-06-18 16:37:02.450,0.08,0.39,9.79
2025-06-18 16:37:02.468,0.08,0.39,9.8
2025-06-18 16:37:02.487,0.08,0.39,9.79
2025-06-18 16:37:02.505,0.08,0.38,9.79
2025-06-18 16:37:02.524,0.08,0.38,9.8
2025-06-18 16:37:02.552,0.08,0.39,9.79
2025-06-18 16:37:02.571,0.09,0.38,9.8
2025-06-18 16:37:02.589,0.08,0.39,9.79
2025-06-18 16:37:02.626,0.09,0.38,9.8
2025-06-18 16:37:02.645,0.09,0.38,9.8
2025-06-18 16:37:02.673,0.09,0.39,9.8
2025-06-18 16:37:02.691,0.09,0.39,9.8
2025-06-18 16:37:02.710,0.08,0.39,9.79
2025-06-18 16:37:02.728,0.08,0.39,9.79
2025-06-18 16:37:02.766,0.08,0.39,9.8
2025-06-18 16:37:02.794,0.08,0.38,9.79
2025-06-18 16:37:02.813,0.08,0.39,9.8
2025-06-18 16:37:02.831,0.09,0.38,9.79
2025-06-18 16:37:02.850,0.08,0.39,9.8
2025-06-18 16:37:02.868,0.08,0.39,9.8
2025-06-18 16:37:02.915,0.08,0.39,9.8
2025-06-18 16:37:02.933,0.08,0.38,9.8
2025-06-18 16:37:02.952,0.09,0.39,9.8
2025-06-18 16:37:02.970,0.09,0.39,9.8
2025-06-18 16:37:02.989,0.08,0.38,9.8
2025-06-18 16:37:03.080,0.08,0.38,9.8
2025-06-18 16:37:03.360,0.08,0.38,9.8
2025-06-18 16:37:03.540,0.08,0.38,9.8
2025-06-18 16:37:03.730,0.08,0.38,9.8
2025-06-18 16:37:03.910,0.08,0.38,9.8
2025-06-18 16:37:03.110,0.08,0.39,9.8
2025-06-18 16:37:03.128,0.08,0.39,9.8
2025-06-18 16:37:03.147,0.08,0.39,9.79
2025-06-18 16:37:03.175,0.08,0.39,9.79
2025-06-18 16:37:03.194,0.08,0.39,9.79
2025-06-18 16:37:03.212,0.08,0.39,9.79
2025-06-18 16:37:03.249,0.08,0.38,9.8
2025-06-18 16:37:03.268,0.08,0.38,9.79
2025-06-18 16:37:03.315,0.08,0.39,9.8
2025-06-18 16:37:03.333,0.08,0.38,9.79
2025-06-18 16:37:03.352,0.09,0.39,9.79
2025-06-18 16:37:03.370,0.08,0.39,9.8
2025-06-18 16:37:03.389,0.08,0.39,9.8
2025-06-18 16:37:03.417,0.08,0.38,9.79
2025-06-18 16:37:03.436,0.08,0.38,9.79
2025-06-18 16:37:03.454,0.09,0.39,9.8
2025-06-18 16:37:03.473,0.09,0.39,9.8
2025-06-18 16:37:03.491,0.08,0.39,9.8
2025-06-18 16:37:03.510,0.08,0.39,9.8
2025-06-18 16:37:03.556,0.08,0.39,9.79
2025-06-18 16:37:03.575,0.07,0.39,9.79
2025-06-18 16:37:03.593,0.07,0.39,9.79
2025-06-18 16:37:03.612,0.08,0.39,9.8
2025-06-18 16:37:03.631,0.08,0.39,9.8
2025-06-18 16:37:03.649,0.08,0.39,9.8
2025-06-18 16:37:03.677,0.08,0.39,9.8
2025-06-18 16:37:03.696,0.09,0.38,9.79
2025-06-18 16:37:03.714,0.09,0.38,9.79
2025-06-18 16:37:03.733,0.09,0.38,9.79
2025-06-18 16:37:03.751,0.09,0.38,9.79
2025-06-18 16:37:03.790,0.08,0.38,9.79
2025-06-18 16:37:03.817,0.09,0.39,9.79
2025-06-18 16:37:03.837,0.09,0.39,9.8
2025-06-18 16:37:03.855,0.09,0.39,9.79
2025-06-18 16:37:03.892,0.08,0.39,9.8
2025-06-18 16:37:03.911,0.08,0.38,9.8
2025-06-18 16:37:03.939,0.08,0.39,9.79
2025-06-18 16:37:03.957,0.08,0.39,9.79
2025-06-18 16:37:03.976,0.08,0.39,9.79
2025-06-18 16:37:03.995,0.08,0.39,9.79
2025-06-18 16:37:04.130,0.09,0.38,9.79
2025-06-18 16:37:04.320,0.09,0.38,9.79
2025-06-18 16:37:04.600,0.08,0.38,9.79
2025-06-18 16:37:04.780,0.08,0.38,9.79
2025-06-18 16:37:04.970,0.08,0.39,9.79
2025-06-18 16:37:04.115,0.08,0.39,9.79
2025-06-18 16:37:04.134,0.08,0.39,9.79
2025-06-18 16:37:04.152,0.08,0.39,9.79
2025-06-18 16:37:04.171,0.09,0.39,9.79
2025-06-18 16:37:04.199,0.09,0.39,9.79
2025-06-18 16:37:04.218,0.08,0.39,9.8
2025-06-18 16:37:04.236,0.08,0.39,9.8
2025-06-18 16:37:04.273,0.08,0.39,9.79
2025-06-18 16:37:04.292,0.08,0.39,9.79
2025-06-18 16:37:04.339,0.08,0.39,9.79
2025-06-18 16:37:04.357,0.08,0.39,9.79
2025-06-18 16:37:04.376,0.08,0.38,9.79
2025-06-18 16:37:04.394,0.08,0.38,9.79
2025-06-18 16:37:04.413,0.08,0.38,9.79
2025-06-18 16:37:04.441,0.09,0.38,9.79
2025-06-18 16:37:04.460,0.09,0.38,9.79
2025-06-18 16:37:04.478,0.08,0.38,9.79
2025-06-18 16:37:04.497,0.08,0.38,9.79
2025-06-18 16:37:04.515,0.08,0.39,9.79
2025-06-18 16:37:04.534,0.08,0.39,9.79
2025-06-18 16:37:04.580,0.09,0.38,9.79
2025-06-18 16:37:04.599,0.08,0.39,9.8
2025-06-18 16:37:04.617,0.08,0.39,9.8
2025-06-18 16:37:04.636,0.09,0.39,9.8
2025-06-18 16:37:04.655,0.09,0.39,9.8
2025-06-18 16:37:04.673,0.08,0.39,9.79
2025-06-18 16:37:04.701,0.08,0.39,9.79
2025-06-18 16:37:04.720,0.09,0.39,9.8
2025-06-18 16:37:04.738,0.09,0.39,9.8
2025-06-18 16:37:04.757,0.09,0.39,9.8
2025-06-18 16:37:04.775,0.09,0.39,9.8
2025-06-18 16:37:04.814,0.08,0.39,9.79
2025-06-18 16:37:04.841,0.08,0.38,9.79
2025-06-18 16:37:04.861,0.08,0.39,9.79
2025-06-18 16:37:04.879,0.08,0.39,9.79
2025-06-18 16:37:04.916,0.08,0.39,9.8
2025-06-18 16:37:04.935,0.09,0.39,9.8
2025-06-18 16:37:04.963,0.08,0.38,9.8
2025-06-18 16:37:04.981,0.08,0.38,9.8
2025-06-18 16:37:05.000,0.09,0.39,9.8
2025-06-18 16:37:05.190,0.09,0.39,9.8
2025-06-18 16:37:05.370,0.09,0.38,9.8
2025-06-18 16:37:05.560,0.09,0.38,9.8
2025-06-18 16:37:05.840,0.08,0.38,9.79
2025-06-18 16:37:05.102,0.08,0.38,9.79
2025-06-18 16:37:05.121,0.08,0.39,9.8
2025-06-18 16:37:05.139,0.08,0.39,9.8
2025-06-18 16:37:05.158,0.08,0.39,9.8
2025-06-18 16:37:05.176,0.08,0.39,9.8
2025-06-18 16:37:05.195,0.08,0.39,9.8
2025-06-18 16:37:05.223,0.08,0.39,9.8
2025-06-18 16:37:05.242,0.08,0.38,9.8
2025-06-18 16:37:05.260,0.08,0.38,9.8
2025-06-18 16:37:05.297,0.08,0.39,9.79
2025-06-18 16:37:05.316,0.08,0.38,9.8
2025-06-18 16:37:05.363,0.09,0.39,9.79
2025-06-18 16:37:05.381,0.08,0.38,9.8
2025-06-18 16:37:05.400,0.08,0.38,9.79
2025-06-18 16:37:05.418,0.08,0.38,9.79
2025-06-18 16:37:05.437,0.08,0.38,9.79
2025-06-18 16:37:05.465,0.08,0.39,9.8
2025-06-18 16:37:05.484,0.08,0.39,9.8
2025-06-18 16:37:05.502,0.08,0.39,9.79
2025-06-18 16:37:05.521,0.08,0.39,9.79
2025-06-18 16:37:05.539,0.08,0.39,9.8
2025-06-18 16:37:05.558,0.08,0.39,9.8
2025-06-18 16:37:05.604,0.08,0.39,9.79
2025-06-18 16:37:05.623,0.09,0.38,9.8
2025-06-18 16:37:05.641,0.09,0.38,9.8
2025-06-18 16:37:05.660,0.09,0.39,9.79
2025-06-18 16:37:05.679,0.09,0.39,9.79
2025-06-18 16:37:05.697,0.08,0.39,9.8
2025-06-18 16:37:05.725,0.08,0.39,9.8
2025-06-18 16:37:05.744,0.08,0.39,9.8
2025-06-18 16:37:05.762,0.08,0.39,9.8
2025-06-18 16:37:05.799,0.08,0.38,9.79
2025-06-18 16:37:05.818,0.08,0.39,9.79
2025-06-18 16:37:05.865,0.08,0.38,9.79
2025-06-18 16:37:05.883,0.08,0.38,9.8
2025-06-18 16:37:05.902,0.08,0.38,9.8
2025-06-18 16:37:05.920,0.08,0.39,9.8
2025-06-18 16:37:05.939,0.08,0.39,9.8
2025-06-18 16:37:05.967,0.08,0.39,9.79
2025-06-18 16:37:05.986,0.08,0.39,9.79
2025-06-18 16:37:06.040,0.09,0.39,9.79
2025-06-18 16:37:06.230,0.09,0.39,9.79
2025-06-18 16:37:06.410,0.09,0.39,9.79
2025-06-18 16:37:06.600,0.09,0.39,9.79
2025-06-18 16:37:06.106,0.08,0.38,9.79
2025-06-18 16:37:06.125,0.09,0.38,9.79
2025-06-18 16:37:06.143,0.09,0.38,9.79
2025-06-18 16:37:06.162,0.09,0.39,9.8
2025-06-18 16:37:06.181,0.09,0.39,9.8
2025-06-18 16:37:06.199,0.08,0.38,9.8
2025-06-18 16:37:06.227,0.08,0.38,9.8
2025-06-18 16:37:06.246,0.09,0.38,9.79
2025-06-18 16:37:06.264,0.09,0.38,9.79
2025-06-18 16:37:06.301,0.09,0.38,9.79
2025-06-18 16:37:06.320,0.09,0.39,9.8
2025-06-18 16:37:06.367,0.08,0.38,9.8
2025-06-18 16:37:06.385,0.09,0.39,9.79
2025-06-18 16:37:06.404,0.08,0.38,9.79
2025-06-18 16:37:06.422,0.08,0.39,9.8
2025-06-18 16:37:06.441,0.08,0.39,9.79
2025-06-18 16:37:06.469,0.09,0.39,9.8
2025-06-18 16:37:06.488,0.08,0.39,9.79
2025-06-18 16:37:06.506,0.08,0.38,9.79
2025-06-18 16:37:06.543,0.08,0.39,9.79
2025-06-18 16:37:06.562,0.08,0.39,9.79
2025-06-18 16:37:06.590,0.08,0.39,9.79
2025-06-18 16:37:06.608,0.08,0.39,9.79
2025-06-18 16:37:06.646,0.08,0.39,9.8
2025-06-18 16:37:06.664,0.09,0.38,9.8
2025-06-18 16:37:06.711,0.08,0.39,9.79
2025-06-18 16:37:06.730,0.08,0.39,9.79
2025-06-18 16:37:06.749,0.08,0.39,9.8
2025-06-18 16:37:06.767,0.08,0.39,9.8
2025-06-18 16:37:06.786,0.08,0.39,9.8
2025-06-18 16:37:06.804,0.08,0.38,9.79
2025-06-18 16:37:06.832,0.08,0.38,9.79
2025-06-18 16:37:06.851,0.08,0.39,9.79
2025-06-18 16:37:06.869,0.08,0.39,9.79
2025-06-18 16:37:06.888,0.08,0.39,9.79
2025-06-18 16:37:06.907,0.08,0.39,9.79
2025-06-18 16:37:06.925,0.08,0.39,9.79
2025-06-18 16:37:06.944,0.08,0.39,9.79
2025-06-18 16:37:06.972,0.09,0.38,9.8
2025-06-18 16:37:06.990,0.09,0.38,9.8
2025-06-18 16:37:07.090,0.08,0.38,9.8
2025-06-18 16:37:07.270,0.08,0.38,9.8
2025-06-18 16:37:07.460,0.08,0.38,9.79
2025-06-18 16:37:07.650,0.08,0.38,9.79
2025-06-18 16:37:07.920,0.08,0.39,9.8
2025-06-18 16:37:07.111,0.08,0.39,9.8
2025-06-18 16:37:07.149,0.09,0.39,9.79
2025-06-18 16:37:07.168,0.08,0.39,9.8
2025-06-18 16:37:07.206,0.09,0.38,9.79
2025-06-18 16:37:07.234,0.08,0.39,9.8
2025-06-18 16:37:07.252,0.09,0.39,9.79
2025-06-18 16:37:07.271,0.08,0.38,9.79
2025-06-18 16:37:07.289,0.08,0.38,9.79
2025-06-18 16:37:07.308,0.09,0.39,9.79
2025-06-18 16:37:07.326,0.08,0.38,9.8
2025-06-18 16:37:07.354,0.08,0.39,9.8
2025-06-18 16:37:07.392,0.08,0.38,9.79
2025-06-18 16:37:07.410,0.08,0.38,9.79
2025-06-18 16:37:07.429,0.08,0.39,9.8
2025-06-18 16:37:07.447,0.08,0.39,9.8
2025-06-18 16:37:07.494,0.08,0.38,9.8
2025-06-18 16:37:07.512,0.09,0.38,9.79
2025-06-18 16:37:07.550,0.08,0.38,9.79
2025-06-18 16:37:07.569,0.08,0.38,9.79
2025-06-18 16:37:07.597,0.08,0.39,9.79
2025-06-18 16:37:07.615,0.09,0.39,9.8
2025-06-18 16:37:07.634,0.09,0.39,9.79
2025-06-18 16:37:07.652,0.09,0.38,9.8
2025-06-18 16:37:07.671,0.09,0.38,9.8
2025-06-18 16:37:07.690,0.08,0.38,9.8
2025-06-18 16:37:07.736,0.09,0.39,9.79
2025-06-18 16:37:07.755,0.09,0.39,9.79
2025-06-18 16:37:07.773,0.08,0.39,9.79
2025-06-18 16:37:07.792,0.08,0.39,9.79
2025-06-18 16:37:07.838,0.09,0.38,9.79
2025-06-18 16:37:07.857,0.08,0.38,9.79
2025-06-18 16:37:07.895,0.09,0.39,9.8
2025-06-18 16:37:07.913,0.08,0.39,9.8
2025-06-18 16:37:07.932,0.08,0.38,9.79
2025-06-18 16:37:07.960,0.08,0.39,9.79
2025-06-18 16:37:07.978,0.08,0.39,9.79
2025-06-18 16:37:07.997,0.08,0.39,9.8
2025-06-18 16:37:08.150,0.08,0.39,9.8
2025-06-18 16:37:08.340,0.08,0.39,9.79
2025-06-18 16:37:08.530,0.08,0.39,9.79
2025-06-18 16:37:08.810,0.09,0.39,9.79
2025-06-18 16:37:08.990,0.09,0.39,9.79
2025-06-18 16:37:08.118,0.08,0.39,9.8
2025-06-18 16:37:08.136,0.08,0.39,9.8
2025-06-18 16:37:08.155,0.08,0.39,9.79
2025-06-18 16:37:08.173,0.08,0.39,9.79
2025-06-18 16:37:08.192,0.08,0.38,9.79
2025-06-18 16:37:08.220,0.08,0.38,9.79
2025-06-18 16:37:08.239,0.08,0.39,9.8
2025-06-18 16:37:08.257,0.08,0.39,9.8
2025-06-18 16:37:08.276,0.09,0.38,9.79
2025-06-18 16:37:08.294,0.09,0.38,9.79
2025-06-18 16:37:08.313,0.08,0.39,9.8
2025-06-18 16:37:08.379,0.08,0.38,9.8
2025-06-18 16:37:08.397,0.08,0.39,9.8
2025-06-18 16:37:08.435,0.08,0.38,9.79
2025-06-18 16:37:08.454,0.08,0.39,9.79
2025-06-18 16:37:08.482,0.08,0.39,9.79
2025-06-18 16:37:08.500,0.08,0.39,9.79
2025-06-18 16:37:08.519,0.08,0.38,9.8
2025-06-18 16:37:08.537,0.08,0.38,9.8
2025-06-18 16:37:08.556,0.08,0.39,9.79
2025-06-18 16:37:08.575,0.08,0.39,9.79
2025-06-18 16:37:08.602,0.08,0.39,9.8
2025-06-18 16:37:08.621,0.08,0.39,9.8
2025-06-18 16:37:08.640,0.08,0.39,9.79
2025-06-18 16:37:08.658,0.08,0.39,9.79
2025-06-18 16:37:08.677,0.08,0.38,9.8
2025-06-18 16:37:08.695,0.08,0.38,9.8
2025-06-18 16:37:08.714,0.09,0.39,9.8
2025-06-18 16:37:08.742,0.09,0.39,9.8
2025-06-18 16:37:08.760,0.08,0.39,9.79
2025-06-18 16:37:08.779,0.08,0.39,9.79
2025-06-18 16:37:08.798,0.08,0.38,9.8
2025-06-18 16:37:08.816,0.08,0.38,9.8
2025-06-18 16:37:08.835,0.08,0.39,9.79
2025-06-18 16:37:08.901,0.09,0.38,9.79
2025-06-18 16:37:08.919,0.08,0.38,9.79
2025-06-18 16:37:08.957,0.08,0.38,9.79
2025-06-18 16:37:08.976,0.09,0.38,9.79
2025-06-18 16:37:09.040,0.08,0.38,9.79
2025-06-18 16:37:09.220,0.08,0.38,9.79
2025-06-18 16:37:09.410,0.08,0.39,9.8
2025-06-18 16:37:09.590,0.08,0.39,9.8
2025-06-18 16:37:09.780,0.08,0.38,9.8
2025-06-18 16:37:09.970,0.08,0.38,9.8
2025-06-18 16:37:09.124,0.08,0.38,9.79
2025-06-18 16:37:09.143,0.08,0.38,9.79
2025-06-18 16:37:09.162,0.08,0.38,9.79
2025-06-18 16:37:09.180,0.08,0.38,9.79
2025-06-18 16:37:09.199,0.08,0.39,9.8
2025-06-18 16:37:09.217,0.08,0.39,9.8
2025-06-18 16:37:09.236,0.09,0.38,9.8
2025-06-18 16:37:09.264,0.09,0.38,9.8
2025-06-18 16:37:09.282,0.08,0.38,9.8
2025-06-18 16:37:09.301,0.08,0.38,9.8
2025-06-18 16:37:09.320,0.08,0.39,9.8
2025-06-18 16:37:09.338,0.08,0.39,9.8
2025-06-18 16:37:09.357,0.08,0.38,9.79
2025-06-18 16:37:09.423,0.09,0.38,9.8
2025-06-18 16:37:09.441,0.08,0.39,9.79
2025-06-18 16:37:09.479,0.09,0.39,9.8
2025-06-18 16:37:09.498,0.08,0.39,9.8
2025-06-18 16:37:09.526,0.08,0.38,9.79
2025-06-18 16:37:09.544,0.08,0.38,9.79
2025-06-18 16:37:09.563,0.09,0.38,9.8
2025-06-18 16:37:09.581,0.09,0.38,9.8
2025-06-18 16:37:09.600,0.08,0.38,9.8
2025-06-18 16:37:09.619,0.08,0.38,9.8
2025-06-18 16:37:09.646,0.08,0.38,9.8
2025-06-18 16:37:09.665,0.08,0.38,9.8
2025-06-18 16:37:09.684,0.08,0.39,9.8
2025-06-18 16:37:09.702,0.08,0.39,9.8
2025-06-18 16:37:09.721,0.09,0.39,9.79
2025-06-18 16:37:09.739,0.09,0.39,9.79
2025-06-18 16:37:09.758,0.09,0.39,9.8
2025-06-18 16:37:09.786,0.09,0.39,9.8
2025-06-18 16:37:09.804,0.08,0.38,9.79
2025-06-18 16:37:09.823,0.08,0.38,9.79
2025-06-18 16:37:09.842,0.08,0.39,9.79
2025-06-18 16:37:09.860,0.08,0.39,9.79
2025-06-18 16:37:09.879,0.09,0.38,9.79
2025-06-18 16:37:09.945,0.09,0.39,9.8
2025-06-18 16:37:09.963,0.08,0.38,9.8
2025-06-18 16:37:10.010,0.09,0.39,9.79
2025-06-18 16:37:10.200,0.08,0.39,9.8
2025-06-18 16:37:10.480,0.08,0.39,9.79
2025-06-18 16:37:10.660,0.08,0.39,9.79
2025-06-18 16:37:10.850,0.09,0.39,9.79
2025-06-18 16:37:10.103,0.09,0.39,9.79
2025-06-18 16:37:10.122,0.08,0.39,9.79
2025-06-18 16:37:10.141,0.08,0.39,9.79
2025-06-18 16:37:10.168,0.08,0.39,9.79
2025-06-18 16:37:10.187,0.08,0.39,9.79
2025-06-18 16:37:10.206,0.09,0.38,9.79
2025-06-18 16:37:10.224,0.09,0.38,9.79
2025-06-18 16:37:10.243,0.08,0.38,9.79
2025-06-18 16:37:10.261,0.08,0.38,9.79
2025-06-18 16:37:10.280,0.08,0.39,9.79
2025-06-18 16:37:10.308,0.08,0.39,9.79
2025-06-18 16:37:10.326,0.08,0.38,9.8
2025-06-18 16:37:10.345,0.08,0.38,9.8
2025-06-18 16:37:10.364,0.08,0.38,9.79
2025-06-18 16:37:10.382,0.08,0.38,9.79
2025-06-18 16:37:10.401,0.08,0.38,9.79
2025-06-18 16:37:10.467,0.08,0.39,9.79
2025-06-18 16:37:10.485,0.08,0.39,9.79
2025-06-18 16:37:10.504,0.08,0.38,9.79
2025-06-18 16:37:10.522,0.08,0.39,9.8
2025-06-18 16:37:10.541,0.08,0.38,9.79
2025-06-18 16:37:10.569,0.08,0.38,9.8
2025-06-18 16:37:10.588,0.08,0.39,9.8
2025-06-18 16:37:10.606,0.08,0.38,9.79
2025-06-18 16:37:10.625,0.08,0.39,9.79
2025-06-18 16:37:10.643,0.08,0.39,9.79
2025-06-18 16:37:10.662,0.08,0.39,9.79
2025-06-18 16:37:10.708,0.08,0.38,9.8
2025-06-18 16:37:10.727,0.08,0.38,9.8
2025-06-18 16:37:10.745,0.08,0.38,9.79
2025-06-18 16:37:10.764,0.08,0.38,9.79
2025-06-18 16:37:10.783,0.08,0.38,9.79
2025-06-18 16:37:10.829,0.08,0.38,9.79
2025-06-18 16:37:10.848,0.08,0.38,9.79
2025-06-18 16:37:10.867,0.08,0.39,9.79
2025-06-18 16:37:10.885,0.08,0.39,9.79
2025-06-18 16:37:10.904,0.08,0.38,9.79
2025-06-18 16:37:10.922,0.08,0.38,9.79
2025-06-18 16:37:10.969,0.09,0.39,9.8
2025-06-18 16:37:10.987,0.07,0.39,9.79
2025-06-18 16:37:11.250,0.08,0.38,9.79
2025-06-18 16:37:11.440,0.09,0.38,9.79
2025-06-18 16:37:11.720,0.08,0.39,9.8
2025-06-18 16:37:11.900,0.08,0.39,9.8
2025-06-18 16:37:11.109,0.09,0.39,9.8
2025-06-18 16:37:11.127,0.09,0.39,9.8
2025-06-18 16:37:11.146,0.08,0.38,9.8
2025-06-18 16:37:11.165,0.08,0.38,9.8
2025-06-18 16:37:11.192,0.09,0.39,9.79
2025-06-18 16:37:11.211,0.09,0.39,9.79
2025-06-18 16:37:11.230,0.08,0.38,9.8
2025-06-18 16:37:11.248,0.08,0.38,9.8
2025-06-18 16:37:11.267,0.09,0.39,9.79
2025-06-18 16:37:11.285,0.09,0.39,9.79
2025-06-18 16:37:11.304,0.08,0.39,9.8
2025-06-18 16:37:11.332,0.08,0.39,9.8
2025-06-18 16:37:11.350,0.08,0.39,9.8
2025-06-18 16:37:11.369,0.08,0.39,9.8
2025-06-18 16:37:11.388,0.09,0.38,9.79
2025-06-18 16:37:11.406,0.09,0.38,9.79
2025-06-18 16:37:11.453,0.09,0.39,9.79
2025-06-18 16:37:11.471,0.09,0.38,9.79
2025-06-18 16:37:11.509,0.08,0.38,9.8
2025-06-18 16:37:11.527,0.09,0.39,9.79
2025-06-18 16:37:11.546,0.09,0.38,9.79
2025-06-18 16:37:11.574,0.09,0.39,9.79
2025-06-18 16:37:11.592,0.08,0.39,9.79
2025-06-18 16:37:11.611,0.08,0.39,9.79
2025-06-18 16:37:11.629,0.08,0.38,9.79
2025-06-18 16:37:11.648,0.09,0.38,9.79
2025-06-18 16:37:11.695,0.08,0.38,9.8
2025-06-18 16:37:11.713,0.08,0.38,9.8
2025-06-18 16:37:11.732,0.08,0.39,9.8
2025-06-18 16:37:11.750,0.08,0.39,9.8
2025-06-18 16:37:11.788,0.08,0.38,9.8
2025-06-18 16:37:11.816,0.08,0.39,9.8
2025-06-18 16:37:11.853,0.08,0.39,9.79
2025-06-18 16:37:11.872,0.08,0.38,9.79
2025-06-18 16:37:11.890,0.09,0.38,9.79
2025-06-18 16:37:11.909,0.08,0.38,9.79
2025-06-18 16:37:11.937,0.08,0.39,9.79
2025-06-18 16:37:11.955,0.08,0.38,9.8
2025-06-18 16:37:11.974,0.09,0.39,9.79
2025-06-18 16:37:11.993,0.08,0.38,9.8
2025-06-18 16:37:12.300,0.08,0.39,9.8
2025-06-18 16:37:12.580,0.08,0.39,9.8
2025-06-18 16:37:12.760,0.08,0.38,9.8
2025-06-18 16:37:12.950,0.08,0.38,9.8
2025-06-18 16:37:12.132,0.08,0.39,9.79
2025-06-18 16:37:12.151,0.09,0.39,9.8
2025-06-18 16:37:12.198,0.08,0.39,9.79
2025-06-18 16:37:12.216,0.08,0.38,9.79
2025-06-18 16:37:12.235,0.09,0.39,9.79
2025-06-18 16:37:12.253,0.08,0.39,9.79
2025-06-18 16:37:12.272,0.08,0.39,9.79
2025-06-18 16:37:12.300,0.08,0.39,9.79
2025-06-18 16:37:12.319,0.08,0.39,9.79
2025-06-18 16:37:12.337,0.08,0.38,9.79
2025-06-18 16:37:12.356,0.08,0.38,9.79
2025-06-18 16:37:12.374,0.08,0.38,9.79
2025-06-18 16:37:12.393,0.08,0.38,9.79
2025-06-18 16:37:12.439,0.08,0.38,9.79
2025-06-18 16:37:12.458,0.08,0.38,9.79
2025-06-18 16:37:12.476,0.08,0.38,9.79
2025-06-18 16:37:12.495,0.08,0.38,9.8
2025-06-18 16:37:12.514,0.08,0.38,9.8
2025-06-18 16:37:12.532,0.09,0.38,9.79
2025-06-18 16:37:12.560,0.09,0.38,9.79
2025-06-18 16:37:12.579,0.08,0.38,9.8
2025-06-18 16:37:12.597,0.08,0.38,9.8
2025-06-18 16:37:12.616,0.08,0.39,9.8
2025-06-18 16:37:12.634,0.08,0.39,9.8
2025-06-18 16:37:12.673,0.08,0.39,9.8
2025-06-18 16:37:12.700,0.08,0.38,9.8
2025-06-18 16:37:12.738,0.08,0.38,9.79
2025-06-18 16:37:12.776,0.08,0.39,9.79
2025-06-18 16:37:12.795,0.08,0.38,9.79
2025-06-18 16:37:12.823,0.08,0.39,9.8
2025-06-18 16:37:12.841,0.08,0.39,9.8
2025-06-18 16:37:12.860,0.08,0.39,9.8
2025-06-18 16:37:12.878,0.08,0.39,9.8
2025-06-18 16:37:12.897,0.08,0.38,9.79
2025-06-18 16:37:12.916,0.08,0.38,9.79
2025-06-18 16:37:12.943,0.08,0.39,9.8
2025-06-18 16:37:12.962,0.08,0.39,9.8
2025-06-18 16:37:13.000,0.08,0.38,9.8
2025-06-18 16:37:13.190,0.08,0.39,9.79
2025-06-18 16:37:13.570,0.08,0.38,9.79
2025-06-18 16:37:13.850,0.09,0.39,9.8
2025-06-18 16:37:13.103,0.09,0.39,9.79
2025-06-18 16:37:13.122,0.09,0.38,9.79
2025-06-18 16:37:13.140,0.08,0.39,9.8
2025-06-18 16:37:13.159,0.08,0.38,9.79
2025-06-18 16:37:13.177,0.08,0.39,9.79
2025-06-18 16:37:13.224,0.08,0.38,9.8
2025-06-18 16:37:13.243,0.08,0.39,9.8
2025-06-18 16:37:13.261,0.08,0.38,9.8
2025-06-18 16:37:13.280,0.08,0.39,9.79
2025-06-18 16:37:13.326,0.08,0.39,9.79
2025-06-18 16:37:13.345,0.09,0.38,9.8
2025-06-18 16:37:13.383,0.08,0.38,9.8
2025-06-18 16:37:13.401,0.08,0.39,9.79
2025-06-18 16:37:13.420,0.09,0.39,9.8
2025-06-18 16:37:13.448,0.09,0.39,9.8
2025-06-18 16:37:13.466,0.09,0.39,9.79
2025-06-18 16:37:13.485,0.08,0.38,9.79
2025-06-18 16:37:13.503,0.08,0.39,9.79
2025-06-18 16:37:13.522,0.08,0.39,9.8
2025-06-18 16:37:13.541,0.08,0.39,9.8
2025-06-18 16:37:13.569,0.08,0.39,9.8
2025-06-18 16:37:13.587,0.08,0.38,9.79
2025-06-18 16:37:13.606,0.09,0.38,9.79
2025-06-18 16:37:13.624,0.08,0.38,9.8
2025-06-18 16:37:13.643,0.08,0.39,9.8
2025-06-18 16:37:13.661,0.09,0.38,9.8
2025-06-18 16:37:13.680,0.08,0.39,9.8
2025-06-18 16:37:13.708,0.08,0.39,9.79
2025-06-18 16:37:13.727,0.08,0.39,9.8
2025-06-18 16:37:13.745,0.08,0.39,9.79
2025-06-18 16:37:13.764,0.09,0.38,9.8
2025-06-18 16:37:13.782,0.09,0.38,9.8
2025-06-18 16:37:13.829,0.09,0.38,9.79
2025-06-18 16:37:13.847,0.08,0.39,9.8
2025-06-18 16:37:13.885,0.08,0.39,9.79
2025-06-18 16:37:13.903,0.09,0.38,9.79
2025-06-18 16:37:13.922,0.08,0.38,9.79
2025-06-18 16:37:13.950,0.08,0.39,9.8
2025-06-18 16:37:13.968,0.09,0.38,9.8
2025-06-18 16:37:13.987,0.09,0.38,9.79
2025-06-18 16:37:14.050,0.08,0.38,9.79
2025-06-18 16:37:14.240,0.08,0.38,9.8
2025-06-18 16:37:14.430,0.08,0.39,9.8
2025-06-18 16:37:14.710,0.08,0.39,9.8
2025-06-18 16:37:14.890,0.09,0.39,9.79
2025-06-18 16:37:14.108,0.08,0.39,9.79
2025-06-18 16:37:14.126,0.09,0.38,9.79
2025-06-18 16:37:14.145,0.09,0.39,9.8
2025-06-18 16:37:14.163,0.08,0.38,9.79
2025-06-18 16:37:14.182,0.09,0.38,9.8
2025-06-18 16:37:14.210,0.08,0.39,9.79
2025-06-18 16:37:14.229,0.09,0.39,9.79
2025-06-18 16:37:14.247,0.09,0.38,9.79
2025-06-18 16:37:14.266,0.08,0.38,9.79
2025-06-18 16:37:14.284,0.09,0.38,9.8
2025-06-18 16:37:14.331,0.09,0.39,9.8
2025-06-18 16:37:14.349,0.09,0.39,9.8
2025-06-18 16:37:14.387,0.08,0.38,9.8
2025-06-18 16:37:14.405,0.09,0.39,9.8
2025-06-18 16:37:14.424,0.08,0.39,9.8
2025-06-18 16:37:14.452,0.08,0.39,9.79
2025-06-18 16:37:14.470,0.09,0.39,9.8
2025-06-18 16:37:14.489,0.08,0.39,9.79
2025-06-18 16:37:14.507,0.09,0.39,9.8
2025-06-18 16:37:14.526,0.08,0.38,9.79
2025-06-18 16:37:14.545,0.08,0.38,9.8
2025-06-18 16:37:14.573,0.09,0.39,9.8
2025-06-18 16:37:14.591,0.08,0.38,9.79
2025-06-18 16:37:14.610,0.08,0.38,9.8
2025-06-18 16:37:14.628,0.08,0.39,9.8
2025-06-18 16:37:14.647,0.08,0.39,9.79
2025-06-18 16:37:14.665,0.09,0.39,9.8
2025-06-18 16:37:14.684,0.08,0.38,9.79
2025-06-18 16:37:14.712,0.08,0.38,9.79
2025-06-18 16:37:14.731,0.08,0.39,9.79
2025-06-18 16:37:14.749,0.09,0.39,9.8
2025-06-18 16:37:14.768,0.08,0.38,9.8
2025-06-18 16:37:14.786,0.08,0.38,9.79
2025-06-18 16:37:14.833,0.08,0.39,9.8
2025-06-18 16:37:14.851,0.08,0.39,9.8
2025-06-18 16:37:14.889,0.08,0.39,9.79
2025-06-18 16:37:14.907,0.08,0.38,9.79
2025-06-18 16:37:14.926,0.08,0.39,9.8
2025-06-18 16:37:14.954,0.08,0.38,9.8
2025-06-18 16:37:14.972,0.08,0.38,9.8
2025-06-18 16:37:14.991,0.08,0.38,9.8
2025-06-18 16:37:15.090,0.08,0.38,9.79
2025-06-18 16:37:15.470,0.08,0.38,9.79
2025-06-18 16:37:15.750,0.09,0.39,9.8
2025-06-18 16:37:15.930,0.08,0.39,9.8
2025-06-18 16:37:15.112,0.08,0.38,9.79
2025-06-18 16:37:15.149,0.08,0.38,9.8
2025-06-18 16:37:15.168,0.08,0.39,9.8
2025-06-18 16:37:15.215,0.08,0.39,9.79
2025-06-18 16:37:15.233,0.08,0.38,9.79
2025-06-18 16:37:15.252,0.08,0.39,9.79
2025-06-18 16:37:15.270,0.08,0.38,9.79
2025-06-18 16:37:15.289,0.08,0.38,9.79
2025-06-18 16:37:15.317,0.08,0.38,9.79
2025-06-18 16:37:15.336,0.08,0.38,9.79
2025-06-18 16:37:15.354,0.09,0.38,9.79
2025-06-18 16:37:15.373,0.08,0.39,9.8
2025-06-18 16:37:15.391,0.08,0.38,9.79
2025-06-18 16:37:15.410,0.08,0.39,9.79
2025-06-18 16:37:15.456,0.08,0.38,9.79
2025-06-18 16:37:15.475,0.08,0.38,9.79
2025-06-18 16:37:15.493,0.08,0.38,9.79
2025-06-18 16:37:15.512,0.09,0.39,9.79
2025-06-18 16:37:15.531,0.08,0.39,9.8
2025-06-18 16:37:15.549,0.08,0.39,9.79
2025-06-18 16:37:15.577,0.08,0.38,9.8
2025-06-18 16:37:15.596,0.08,0.38,9.8
2025-06-18 16:37:15.614,0.09,0.38,9.8
2025-06-18 16:37:15.651,0.09,0.39,9.79
2025-06-18 16:37:15.670,0.08,0.39,9.79
2025-06-18 16:37:15.717,0.09,0.38,9.8
2025-06-18 16:37:15.735,0.08,0.38,9.8
2025-06-18 16:37:15.754,0.08,0.38,9.79
2025-06-18 16:37:15.772,0.08,0.39,9.79
2025-06-18 16:37:15.791,0.09,0.38,9.8
2025-06-18 16:37:15.819,0.08,0.38,9.79
2025-06-18 16:37:15.838,0.08,0.38,9.8
2025-06-18 16:37:15.875,0.09,0.38,9.79
2025-06-18 16:37:15.893,0.09,0.38,9.79
2025-06-18 16:37:15.912,0.08,0.39,9.79
2025-06-18 16:37:15.940,0.08,0.39,9.79
2025-06-18 16:37:15.977,0.08,0.38,9.8
2025-06-18 16:37:15.996,0.08,0.39,9.79
2025-06-18 16:37:16.340,0.08,0.39,9.8
2025-06-18 16:37:16.620,0.08,0.38,9.79
2025-06-18 16:37:16.800,0.08,0.39,9.79
2025-06-18 16:37:16.990,0.09,0.39,9.79
2025-06-18 16:37:16.117,0.09,0.39,9.79
2025-06-18 16:37:16.136,0.08,0.38,9.8
2025-06-18 16:37:16.154,0.08,0.38,9.8
2025-06-18 16:37:16.182,0.08,0.39,9.79
2025-06-18 16:37:16.201,0.08,0.39,9.79
2025-06-18 16:37:16.220,0.09,0.39,9.79
2025-06-18 16:37:16.238,0.09,0.39,9.79
2025-06-18 16:37:16.257,0.08,0.39,9.79
2025-06-18 16:37:16.275,0.08,0.39,9.79
2025-06-18 16:37:16.294,0.08,0.39,9.79
2025-06-18 16:37:16.322,0.08,0.39,9.79
2025-06-18 16:37:16.340,0.08,0.39,9.79
2025-06-18 16:37:16.359,0.08,0.39,9.79
2025-06-18 16:37:16.377,0.09,0.39,9.8
2025-06-18 16:37:16.396,0.09,0.39,9.8
2025-06-18 16:37:16.415,0.08,0.38,9.8
2025-06-18 16:37:16.443,0.08,0.38,9.79
2025-06-18 16:37:16.481,0.08,0.38,9.8
2025-06-18 16:37:16.499,0.09,0.39,9.79
2025-06-18 16:37:16.537,0.09,0.38,9.8
2025-06-18 16:37:16.556,0.08,0.39,9.8
2025-06-18 16:37:16.584,0.08,0.38,9.8
2025-06-18 16:37:16.602,0.08,0.39,9.79
2025-06-18 16:37:16.621,0.09,0.39,9.8
2025-06-18 16:37:16.639,0.08,0.38,9.8
2025-06-18 16:37:16.658,0.08,0.38,9.79
2025-06-18 16:37:16.704,0.09,0.39,9.79
2025-06-18 16:37:16.723,0.09,0.39,9.79
2025-06-18 16:37:16.742,0.08,0.39,9.8
2025-06-18 16:37:16.760,0.08,0.39,9.8
2025-06-18 16:37:16.798,0.09,0.39,9.8
2025-06-18 16:37:16.826,0.09,0.39,9.8
2025-06-18 16:37:16.863,0.09,0.39,9.79
2025-06-18 16:37:16.882,0.08,0.39,9.79
2025-06-18 16:37:16.900,0.09,0.39,9.8
2025-06-18 16:37:16.919,0.09,0.39,9.79
2025-06-18 16:37:16.947,0.09,0.39,9.79
2025-06-18 16:37:16.965,0.08,0.39,9.8
2025-06-18 16:37:16.984,0.08,0.39,9.8
2025-06-18 16:37:17.030,0.08,0.39,9.79
2025-06-18 16:37:17.210,0.08,0.39,9.79
2025-06-18 16:37:17.400,0.09,0.39,9.8
2025-06-18 16:37:17.860,0.09,0.39,9.8
2025-06-18 16:37:17.105,0.09,0.39,9.8
2025-06-18 16:37:17.123,0.09,0.39,9.79
2025-06-18 16:37:17.142,0.09,0.39,9.79
2025-06-18 16:37:17.161,0.09,0.39,9.8
2025-06-18 16:37:17.179,0.09,0.39,9.8
2025-06-18 16:37:17.207,0.08,0.39,9.8
2025-06-18 16:37:17.226,0.08,0.39,9.8
2025-06-18 16:37:17.244,0.08,0.38,9.8
2025-06-18 16:37:17.263,0.08,0.38,9.8
2025-06-18 16:37:17.300,0.09,0.38,9.79
2025-06-18 16:37:17.328,0.08,0.38,9.79
2025-06-18 16:37:17.365,0.08,0.39,9.79
2025-06-18 16:37:17.384,0.09,0.38,9.8
2025-06-18 16:37:17.402,0.09,0.38,9.79
2025-06-18 16:37:17.421,0.09,0.38,9.79
2025-06-18 16:37:17.449,0.08,0.39,9.79
2025-06-18 16:37:17.467,0.08,0.39,9.79
2025-06-18 16:37:17.486,0.09,0.39,9.79
2025-06-18 16:37:17.505,0.09,0.39,9.79
2025-06-18 16:37:17.523,0.08,0.39,9.79
2025-06-18 16:37:17.542,0.08,0.39,9.79
2025-06-18 16:37:17.588,0.09,0.39,9.8
2025-06-18 16:37:17.607,0.09,0.39,9.79
2025-06-18 16:37:17.625,0.09,0.39,9.79
2025-06-18 16:37:17.644,0.08,0.39,9.79
2025-06-18 16:37:17.663,0.08,0.39,9.79
2025-06-18 16:37:17.681,0.08,0.39,9.8
2025-06-18 16:37:17.709,0.08,0.39,9.8
2025-06-18 16:37:17.728,0.09,0.38,9.8
2025-06-18 16:37:17.746,0.09,0.38,9.8
2025-06-18 16:37:17.783,0.08,0.38,9.79
2025-06-18 16:37:17.802,0.08,0.38,9.79
2025-06-18 16:37:17.849,0.08,0.39,9.8
2025-06-18 16:37:17.867,0.08,0.39,9.8
2025-06-18 16:37:17.886,0.09,0.38,9.8
2025-06-18 16:37:17.904,0.08,0.38,9.79
2025-06-18 16:37:17.923,0.08,0.38,9.79
2025-06-18 16:37:17.951,0.09,0.39,9.8
2025-06-18 16:37:17.970,0.09,0.39,9.8
2025-06-18 16:37:17.988,0.09,0.39,9.8
2025-06-18 16:37:18.070,0.09,0.39,9.8
2025-06-18 16:37:18.250,0.09,0.38,9.8
2025-06-18 16:37:18.440,0.09,0.38,9.8
2025-06-18 16:37:18.900,0.08,0.39,9.8
2025-06-18 16:37:18.109,0.09,0.39,9.8
2025-06-18 16:37:18.127,0.09,0.39,9.8
2025-06-18 16:37:18.146,0.09,0.38,9.8
2025-06-18 16:37:18.165,0.09,0.38,9.8
2025-06-18 16:37:18.183,0.08,0.38,9.8
2025-06-18 16:37:18.211,0.08,0.38,9.8
2025-06-18 16:37:18.230,0.08,0.38,9.8
2025-06-18 16:37:18.248,0.08,0.38,9.8
2025-06-18 16:37:18.285,0.08,0.39,9.8
2025-06-18 16:37:18.304,0.08,0.39,9.8
2025-06-18 16:37:18.351,0.08,0.39,9.79
2025-06-18 16:37:18.369,0.09,0.38,9.79
2025-06-18 16:37:18.388,0.09,0.38,9.8
2025-06-18 16:37:18.406,0.08,0.38,9.79
2025-06-18 16:37:18.425,0.08,0.38,9.79
2025-06-18 16:37:18.453,0.08,0.39,9.8
2025-06-18 16:37:18.472,0.08,0.39,9.8
2025-06-18 16:37:18.490,0.09,0.38,9.79
2025-06-18 16:37:18.509,0.09,0.38,9.79
2025-06-18 16:37:18.527,0.08,0.38,9.8
2025-06-18 16:37:18.546,0.08,0.38,9.8
2025-06-18 16:37:18.592,0.08,0.39,9.79
2025-06-18 16:37:18.611,0.08,0.38,9.79
2025-06-18 16:37:18.629,0.08,0.38,9.79
2025-06-18 16:37:18.648,0.08,0.38,9.8
2025-06-18 16:37:18.667,0.08,0.38,9.8
2025-06-18 16:37:18.685,0.08,0.39,9.8
2025-06-18 16:37:18.713,0.08,0.39,9.8
2025-06-18 16:37:18.732,0.08,0.39,9.8
2025-06-18 16:37:18.750,0.08,0.39,9.8
2025-06-18 16:37:18.787,0.08,0.39,9.8
2025-06-18 16:37:18.806,0.08,0.39,9.79
2025-06-18 16:37:18.853,0.08,0.39,9.8
2025-06-18 16:37:18.871,0.09,0.38,9.79
2025-06-18 16:37:18.890,0.08,0.39,9.8
2025-06-18 16:37:18.908,0.09,0.39,9.79
2025-06-18 16:37:18.927,0.08,0.39,9.8
2025-06-18 16:37:18.955,0.08,0.38,9.8
2025-06-18 16:37:18.974,0.08,0.38,9.79
2025-06-18 16:37:19.110,0.08,0.38,9.8
2025-06-18 16:37:19.290,0.08,0.38,9.8
2025-06-18 16:37:19.480,0.09,0.39,9.79
2025-06-18 16:37:19.760,0.09,0.39,9.79
2025-06-18 16:37:19.113,0.08,0.38,9.79
2025-06-18 16:37:19.132,0.08,0.39,9.8
2025-06-18 16:37:19.170,0.08,0.39,9.8
2025-06-18 16:37:19.198,0.08,0.39,9.8
2025-06-18 16:37:19.216,0.09,0.38,9.79
2025-06-18 16:37:19.235,0.09,0.39,9.8
2025-06-18 16:37:19.253,0.09,0.39,9.8
2025-06-18 16:37:19.272,0.09,0.39,9.79
2025-06-18 16:37:19.290,0.09,0.39,9.79
2025-06-18 16:37:19.318,0.08,0.38,9.79
2025-06-18 16:37:19.337,0.08,0.38,9.79
2025-06-18 16:37:19.356,0.09,0.39,9.8
2025-06-18 16:37:19.374,0.09,0.39,9.8
2025-06-18 16:37:19.393,0.08,0.38,9.8
2025-06-18 16:37:19.411,0.08,0.38,9.8
2025-06-18 16:37:19.430,0.08,0.38,9.79
2025-06-18 16:37:19.458,0.08,0.38,9.79
2025-06-18 16:37:19.476,0.08,0.38,9.79
2025-06-18 16:37:19.495,0.08,0.38,9.79
2025-06-18 16:37:19.513,0.09,0.39,9.8
2025-06-18 16:37:19.532,0.09,0.39,9.8
2025-06-18 16:37:19.551,0.08,0.39,9.8
2025-06-18 16:37:19.579,0.08,0.39,9.8
2025-06-18 16:37:19.617,0.08,0.39,9.8
2025-06-18 16:37:19.635,0.08,0.39,9.8
2025-06-18 16:37:19.673,0.09,0.38,9.79
2025-06-18 16:37:19.692,0.08,0.39,9.8
2025-06-18 16:37:19.720,0.09,0.39,9.8
2025-06-18 16:37:19.738,0.08,0.38,9.79
2025-06-18 16:37:19.757,0.08,0.38,9.79
2025-06-18 16:37:19.775,0.08,0.38,9.8
2025-06-18 16:37:19.794,0.08,0.38,9.8
2025-06-18 16:37:19.813,0.09,0.38,9.79
2025-06-18 16:37:19.840,0.09,0.38,9.79
2025-06-18 16:37:19.859,0.08,0.38,9.79
2025-06-18 16:37:19.878,0.08,0.38,9.79
2025-06-18 16:37:19.896,0.09,0.38,9.79
2025-06-18 16:37:19.915,0.09,0.38,9.79
2025-06-18 16:37:19.933,0.08,0.38,9.8
2025-06-18 16:37:19.952,0.08,0.38,9.8
2025-06-18 16:37:19.980,0.09,0.38,9.79
2025-06-18 16:37:19.998,0.09,0.38,9.79
2025-06-18 16:37:20.170,0.08,0.39,9.79
2025-06-18 16:37:20.360,0.08,0.39,9.79
2025-06-18 16:37:20.540,0.09,0.39,9.8
2025-06-18 16:37:20.730,0.09,0.39,9.8
2025-06-18 16:37:20.119,0.08,0.39,9.79
2025-06-18 16:37:20.137,0.08,0.39,9.79
2025-06-18 16:37:20.175,0.08,0.38,9.79
2025-06-18 16:37:20.194,0.09,0.39,9.79
2025-06-18 16:37:20.222,0.08,0.38,9.8
2025-06-18 16:37:20.240,0.09,0.39,9.79
2025-06-18 16:37:20.259,0.09,0.39,9.79
2025-06-18 16:37:20.277,0.08,0.39,9.8
2025-06-18 16:37:20.296,0.08,0.39,9.8
2025-06-18 16:37:20.315,0.08,0.39,9.8
2025-06-18 16:37:20.342,0.08,0.39,9.8
2025-06-18 16:37:20.361,0.09,0.39,9.8
2025-06-18 16:37:20.380,0.09,0.39,9.8
2025-06-18 16:37:20.398,0.08,0.39,9.79
2025-06-18 16:37:20.417,0.08,0.39,9.79
2025-06-18 16:37:20.435,0.08,0.38,9.79
2025-06-18 16:37:20.454,0.08,0.38,9.79
2025-06-18 16:37:20.482,0.08,0.39,9.8
2025-06-18 16:37:20.500,0.08,0.39,9.8
2025-06-18 16:37:20.519,0.08,0.38,9.79
2025-06-18 16:37:20.538,0.08,0.38,9.79
2025-06-18 16:37:20.556,0.08,0.38,9.8
2025-06-18 16:37:20.575,0.08,0.38,9.8
2025-06-18 16:37:20.621,0.08,0.39,9.79
2025-06-18 16:37:20.639,0.08,0.38,9.8
2025-06-18 16:37:20.677,0.08,0.39,9.8
2025-06-18 16:37:20.696,0.09,0.4,9.8
2025-06-18 16:37:20.724,0.08,0.39,9.79
2025-06-18 16:37:20.742,0.09,0.39,9.79
2025-06-18 16:37:20.761,0.09,0.39,9.79
2025-06-18 16:37:20.779,0.08,0.39,9.79
2025-06-18 16:37:20.798,0.08,0.39,9.79
2025-06-18 16:37:20.817,0.09,0.39,9.8
2025-06-18 16:37:20.844,0.09,0.39,9.8
2025-06-18 16:37:20.863,0.08,0.39,9.79
2025-06-18 16:37:20.882,0.08,0.39,9.79
2025-06-18 16:37:20.900,0.08,0.38,9.8
2025-06-18 16:37:20.919,0.08,0.38,9.8
2025-06-18 16:37:20.937,0.09,0.39,9.79
2025-06-18 16:37:20.956,0.09,0.39,9.79
2025-06-18 16:37:20.984,0.08,0.39,9.79
2025-06-18 16:37:21.020,0.08,0.39,9.79
2025-06-18 16:37:21.210,0.08,0.38,9.79
2025-06-18 16:37:21.400,0.08,0.38,9.79
2025-06-18 16:37:21.580,0.09,0.39,9.79
2025-06-18 16:37:21.770,0.09,0.39,9.79
2025-06-18 16:37:21.124,0.08,0.39,9.79
2025-06-18 16:37:21.143,0.09,0.39,9.79
2025-06-18 16:37:21.181,0.09,0.38,9.79
2025-06-18 16:37:21.199,0.09,0.38,9.79
2025-06-18 16:37:21.218,0.08,0.39,9.8
2025-06-18 16:37:21.246,0.08,0.39,9.8
2025-06-18 16:37:21.264,0.09,0.39,9.8
2025-06-18 16:37:21.283,0.09,0.39,9.8
2025-06-18 16:37:21.301,0.08,0.39,9.8
2025-06-18 16:37:21.320,0.08,0.39,9.8
2025-06-18 16:37:21.367,0.08,0.39,9.79
2025-06-18 16:37:21.385,0.08,0.39,9.79
2025-06-18 16:37:21.404,0.08,0.39,9.79
2025-06-18 16:37:21.422,0.08,0.39,9.79
2025-06-18 16:37:21.460,0.09,0.38,9.8
2025-06-18 16:37:21.488,0.08,0.38,9.8
2025-06-18 16:37:21.525,0.09,0.38,9.8
2025-06-18 16:37:21.544,0.08,0.38,9.8
2025-06-18 16:37:21.562,0.09,0.39,9.8
2025-06-18 16:37:21.581,0.08,0.38,9.79
2025-06-18 16:37:21.609,0.08,0.38,9.79
2025-06-18 16:37:21.627,0.08,0.39,9.79
2025-06-18 16:37:21.646,0.08,0.39,9.79
2025-06-18 16:37:21.665,0.09,0.38,9.8
2025-06-18 16:37:21.683,0.09,0.38,9.8
2025-06-18 16:37:21.702,0.08,0.39,9.8
2025-06-18 16:37:21.748,0.08,0.39,9.79
2025-06-18 16:37:21.767,0.08,0.39,9.79
2025-06-18 16:37:21.785,0.07,0.38,9.8
2025-06-18 16:37:21.804,0.07,0.38,9.8
2025-06-18 16:37:21.823,0.09,0.39,9.79
2025-06-18 16:37:21.841,0.09,0.39,9.79
2025-06-18 16:37:21.869,0.08,0.39,9.79
2025-06-18 16:37:21.888,0.08,0.39,9.79
2025-06-18 16:37:21.906,0.09,0.38,9.8
2025-06-18 16:37:21.925,0.09,0.38,9.8
2025-06-18 16:37:21.962,0.08,0.38,9.79
2025-06-18 16:37:21.990,0.09,0.38,9.8
2025-06-18 16:37:22.270,0.08,0.38,9.79
2025-06-18 16:37:22.460,0.08,0.38,9.79
2025-06-18 16:37:22.640,0.08,0.39,9.79
2025-06-18 16:37:22.830,0.09,0.38,9.8
2025-06-18 16:37:22.111,0.09,0.38,9.8
2025-06-18 16:37:22.129,0.08,0.39,9.79
2025-06-18 16:37:22.148,0.08,0.39,9.79
2025-06-18 16:37:22.167,0.08,0.38,9.8
2025-06-18 16:37:22.185,0.08,0.38,9.8
2025-06-18 16:37:22.204,0.08,0.38,9.8
2025-06-18 16:37:22.250,0.09,0.38,9.79
2025-06-18 16:37:22.269,0.09,0.38,9.79
2025-06-18 16:37:22.287,0.08,0.39,9.79
2025-06-18 16:37:22.306,0.08,0.39,9.79
2025-06-18 16:37:22.325,0.08,0.39,9.8
2025-06-18 16:37:22.343,0.08,0.39,9.8
2025-06-18 16:37:22.371,0.09,0.39,9.8
2025-06-18 16:37:22.390,0.09,0.39,9.8
2025-06-18 16:37:22.408,0.08,0.38,9.79
2025-06-18 16:37:22.427,0.08,0.38,9.79
2025-06-18 16:37:22.464,0.08,0.38,9.8
2025-06-18 16:37:22.492,0.08,0.39,9.8
2025-06-18 16:37:22.529,0.08,0.38,9.79
2025-06-18 16:37:22.548,0.09,0.39,9.8
2025-06-18 16:37:22.566,0.09,0.39,9.79
2025-06-18 16:37:22.585,0.08,0.38,9.8
2025-06-18 16:37:22.613,0.08,0.38,9.8
2025-06-18 16:37:22.631,0.08,0.38,9.8
2025-06-18 16:37:22.650,0.08,0.38,9.8
2025-06-18 16:37:22.669,0.08,0.39,9.79
2025-06-18 16:37:22.706,0.08,0.39,9.79
2025-06-18 16:37:22.734,0.08,0.39,9.79
2025-06-18 16:37:22.752,0.09,0.38,9.79
2025-06-18 16:37:22.771,0.09,0.38,9.79
2025-06-18 16:37:22.808,0.08,0.39,9.8
2025-06-18 16:37:22.827,0.09,0.39,9.79
2025-06-18 16:37:22.874,0.08,0.39,9.8
2025-06-18 16:37:22.892,0.09,0.39,9.8
2025-06-18 16:37:22.911,0.08,0.39,9.8
2025-06-18 16:37:22.929,0.09,0.38,9.8
2025-06-18 16:37:22.948,0.09,0.38,9.8
2025-06-18 16:37:22.976,0.08,0.38,9.8
2025-06-18 16:37:22.995,0.08,0.38,9.8
2025-06-18 16:37:23.130,0.08,0.38,9.79
2025-06-18 16:37:23.320,0.08,0.38,9.79
2025-06-18 16:37:23.500,0.08,0.38,9.8
2025-06-18 16:37:23.690,0.08,0.38,9.8
2025-06-18 16:37:23.115,0.08,0.38,9.79
2025-06-18 16:37:23.134,0.09,0.38,9.79
2025-06-18 16:37:23.152,0.09,0.38,9.79
2025-06-18 16:37:23.171,0.08,0.39,9.8
2025-06-18 16:37:23.190,0.08,0.39,9.8
2025-06-18 16:37:23.208,0.08,0.38,9.8
2025-06-18 16:37:23.236,0.08,0.38,9.8
2025-06-18 16:37:23.255,0.08,0.39,9.8
2025-06-18 16:37:23.273,0.08,0.39,9.8
2025-06-18 16:37:23.310,0.08,0.39,9.79
2025-06-18 16:37:23.329,0.08,0.38,9.79
2025-06-18 16:37:23.376,0.09,0.39,9.8
2025-06-18 16:37:23.394,0.08,0.39,9.79
2025-06-18 16:37:23.413,0.08,0.39,9.79
2025-06-18 16:37:23.431,0.08,0.39,9.79
2025-06-18 16:37:23.450,0.08,0.38,9.79
2025-06-18 16:37:23.478,0.08,0.39,9.79
2025-06-18 16:37:23.497,0.08,0.38,9.8
2025-06-18 16:37:23.534,0.08,0.39,9.79
2025-06-18 16:37:23.552,0.08,0.39,9.79
2025-06-18 16:37:23.571,0.08,0.39,9.79
2025-06-18 16:37:23.599,0.08,0.39,9.79
2025-06-18 16:37:23.636,0.08,0.38,9.79
2025-06-18 16:37:23.655,0.09,0.39,9.79
2025-06-18 16:37:23.693,0.08,0.38,9.79
2025-06-18 16:37:23.721,0.09,0.38,9.79
2025-06-18 16:37:23.739,0.08,0.38,9.79
2025-06-18 16:37:23.758,0.09,0.39,9.79
2025-06-18 16:37:23.776,0.09,0.39,9.79
2025-06-18 16:37:23.795,0.09,0.39,9.79
2025-06-18 16:37:23.813,0.09,0.39,9.79
2025-06-18 16:37:23.841,0.08,0.39,9.79
2025-06-18 16:37:23.860,0.08,0.39,9.79
2025-06-18 16:37:23.879,0.08,0.38,9.8
2025-06-18 16:37:23.897,0.08,0.38,9.8
2025-06-18 16:37:23.916,0.08,0.38,9.8
2025-06-18 16:37:23.934,0.08,0.38,9.8
2025-06-18 16:37:23.953,0.09,0.39,9.79
2025-06-18 16:37:23.981,0.09,0.39,9.79
2025-06-18 16:37:23.999,0.08,0.39,9.79
2025-06-18 16:37:24.180,0.08,0.39,9.79
2025-06-18 16:37:24.360,0.09,0.38,9.8
2025-06-18 16:37:24.550,0.09,0.38,9.8
2025-06-18 16:37:24.740,0.08,0.39,9.79
2025-06-18 16:37:24.102,0.08,0.39,9.79
2025-06-18 16:37:24.140,0.08,0.39,9.8
2025-06-18 16:37:24.158,0.09,0.39,9.8
2025-06-18 16:37:24.196,0.08,0.39,9.79
2025-06-18 16:37:24.215,0.08,0.39,9.79
2025-06-18 16:37:24.243,0.08,0.39,9.8
2025-06-18 16:37:24.261,0.09,0.39,9.79
2025-06-18 16:37:24.280,0.09,0.39,9.79
2025-06-18 16:37:24.298,0.09,0.38,9.79
2025-06-18 16:37:24.317,0.09,0.38,9.8
2025-06-18 16:37:24.363,0.09,0.39,9.8
2025-06-18 16:37:24.382,0.09,0.39,9.8
2025-06-18 16:37:24.401,0.08,0.38,9.79
2025-06-18 16:37:24.419,0.08,0.38,9.79
2025-06-18 16:37:24.457,0.08,0.38,9.8
2025-06-18 16:37:24.485,0.08,0.39,9.79
2025-06-18 16:37:24.522,0.07,0.38,9.79
2025-06-18 16:37:24.541,0.09,0.39,9.8
2025-06-18 16:37:24.559,0.08,0.39,9.79
2025-06-18 16:37:24.578,0.08,0.39,9.79
2025-06-18 16:37:24.606,0.09,0.38,9.79
2025-06-18 16:37:24.624,0.08,0.38,9.8
2025-06-18 16:37:24.643,0.09,0.39,9.8
2025-06-18 16:37:24.680,0.09,0.39,9.79
2025-06-18 16:37:24.699,0.09,0.39,9.79
2025-06-18 16:37:24.727,0.08,0.39,9.8
2025-06-18 16:37:24.745,0.08,0.39,9.8
2025-06-18 16:37:24.783,0.08,0.39,9.8
2025-06-18 16:37:24.801,0.09,0.38,9.79
2025-06-18 16:37:24.848,0.08,0.39,9.79
2025-06-18 16:37:24.867,0.09,0.38,9.8
2025-06-18 16:37:24.886,0.08,0.39,9.79
2025-06-18 16:37:24.904,0.08,0.38,9.79
2025-06-18 16:37:24.923,0.09,0.38,9.8
2025-06-18 16:37:24.941,0.09,0.39,9.8
2025-06-18 16:37:24.969,0.09,0.39,9.8
2025-06-18 16:37:24.988,0.09,0.38,9.79
2025-06-18 16:37:25.060,0.09,0.38,9.79
2025-06-18 16:37:25.250,0.08,0.39,9.8
2025-06-18 16:37:25.440,0.08,0.39,9.8
2025-06-18 16:37:25.620,0.08,0.39,9.8
2025-06-18 16:37:25.810,0.08,0.38,9.8
2025-06-18 16:37:25.109,0.08,0.39,9.79
2025-06-18 16:37:25.127,0.08,0.38,9.79
2025-06-18 16:37:25.146,0.08,0.39,9.8
2025-06-18 16:37:25.164,0.08,0.39,9.8
2025-06-18 16:37:25.183,0.08,0.39,9.79
2025-06-18 16:37:25.202,0.08,0.38,9.8
2025-06-18 16:37:25.229,0.09,0.39,9.79
2025-06-18 16:37:25.248,0.09,0.39,9.79
2025-06-18 16:37:25.286,0.09,0.38,9.8
2025-06-18 16:37:25.305,0.09,0.39,9.8
2025-06-18 16:37:25.343,0.08,0.38,9.8
2025-06-18 16:37:25.371,0.09,0.39,9.79
2025-06-18 16:37:25.389,0.08,0.38,9.79
2025-06-18 16:37:25.408,0.09,0.38,9.79
2025-06-18 16:37:25.426,0.08,0.39,9.8
2025-06-18 16:37:25.445,0.08,0.38,9.8
2025-06-18 16:37:25.463,0.09,0.39,9.8
2025-06-18 16:37:25.510,0.08,0.39,9.79
2025-06-18 16:37:25.529,0.08,0.38,9.8
2025-06-18 16:37:25.547,0.09,0.38,9.79
2025-06-18 16:37:25.566,0.08,0.38,9.79
2025-06-18 16:37:25.612,0.09,0.38,9.79
2025-06-18 16:37:25.631,0.08,0.39,9.79
2025-06-18 16:37:25.669,0.08,0.39,9.79
2025-06-18 16:37:25.687,0.08,0.38,9.79
2025-06-18 16:37:25.706,0.08,0.39,9.79
2025-06-18 16:37:25.734,0.08,0.39,9.79
2025-06-18 16:37:25.752,0.08,0.39,9.8
2025-06-18 16:37:25.771,0.08,0.39,9.8
2025-06-18 16:37:25.789,0.09,0.39,9.79
2025-06-18 16:37:25.808,0.09,0.38,9.79
2025-06-18 16:37:25.827,0.09,0.38,9.79
2025-06-18 16:37:25.855,0.08,0.39,9.79
2025-06-18 16:37:25.873,0.08,0.38,9.8
2025-06-18 16:37:25.892,0.08,0.38,9.79
2025-06-18 16:37:25.910,0.08,0.38,9.8
2025-06-18 16:37:25.929,0.09,0.38,9.79
2025-06-18 16:37:25.947,0.09,0.39,9.8
2025-06-18 16:37:25.966,0.08,0.38,9.79
2025-06-18 16:37:25.994,0.08,0.38,9.79
2025-06-18 16:37:26.130,0.08,0.39,9.8
2025-06-18 16:37:26.310,0.08,0.39,9.79
2025-06-18 16:37:26.500,0.09,0.38,9.79
2025-06-18 16:37:26.680,0.08,0.39,9.8
2025-06-18 16:37:26.115,0.08,0.39,9.79
2025-06-18 16:37:26.133,0.09,0.39,9.79
2025-06-18 16:37:26.171,0.08,0.38,9.79
2025-06-18 16:37:26.189,0.08,0.38,9.79
2025-06-18 16:37:26.208,0.08,0.38,9.8
2025-06-18 16:37:26.236,0.08,0.38,9.79
2025-06-18 16:37:26.254,0.08,0.38,9.79
2025-06-18 16:37:26.273,0.08,0.38,9.79
2025-06-18 16:37:26.291,0.08,0.38,9.79
2025-06-18 16:37:26.310,0.09,0.39,9.8
2025-06-18 16:37:26.329,0.08,0.39,9.79
2025-06-18 16:37:26.357,0.08,0.39,9.8
2025-06-18 16:37:26.375,0.08,0.38,9.8
2025-06-18 16:37:26.394,0.08,0.38,9.79
2025-06-18 16:37:26.412,0.08,0.38,9.8
2025-06-18 16:37:26.431,0.09,0.39,9.79
2025-06-18 16:37:26.449,0.09,0.39,9.8
2025-06-18 16:37:26.468,0.08,0.38,9.79
2025-06-18 16:37:26.496,0.08,0.39,9.8
2025-06-18 16:37:26.515,0.08,0.38,9.79
2025-06-18 16:37:26.533,0.08,0.39,9.8
2025-06-18 16:37:26.552,0.08,0.39,9.79
2025-06-18 16:37:26.570,0.09,0.39,9.79
2025-06-18 16:37:26.617,0.09,0.38,9.79
2025-06-18 16:37:26.635,0.08,0.38,9.8
2025-06-18 16:37:26.673,0.09,0.38,9.79
2025-06-18 16:37:26.691,0.09,0.39,9.8
2025-06-18 16:37:26.710,0.09,0.39,9.79
2025-06-18 16:37:26.738,0.09,0.39,9.79
2025-06-18 16:37:26.756,0.08,0.38,9.8
2025-06-18 16:37:26.775,0.08,0.38,9.8
2025-06-18 16:37:26.793,0.08,0.39,9.8
2025-06-18 16:37:26.812,0.08,0.38,9.8
2025-06-18 16:37:26.831,0.09,0.39,9.79
2025-06-18 16:37:26.859,0.08,0.38,9.8
2025-06-18 16:37:26.877,0.09,0.39,9.79
2025-06-18 16:37:26.896,0.08,0.39,9.79
2025-06-18 16:37:26.914,0.08,0.39,9.79
2025-06-18 16:37:26.933,0.08,0.38,9.79
2025-06-18 16:37:26.951,0.09,0.39,9.8
2025-06-18 16:37:26.970,0.09,0.39,9.8
2025-06-18 16:37:26.998,0.08,0.38,9.8
2025-06-18 16:37:27.170,0.08,0.38,9.79
2025-06-18 16:37:27.350,0.09,0.39,9.79
2025-06-18 16:37:27.540,0.08,0.38,9.79
2025-06-18 16:37:27.910,0.09,0.38,9.79
